File: data/2022-09-06_EDS-SEM-APREO/Al_30kV.emsa
#FORMAT      : EMSA/MAS Spectral Data File
#VERSION     : 1.0
#TITLE       : Fe_30kV
#DATE        : 06-SEP-2022
#TIME        : 17:40
#OWNER       :
#NPOINTS     : 2048.0
#NCOLUMNS    : 1.0
#XUNITS      : keV
#YUNITS      : counts
#DATATYPE    : XY
#XPERCHAN    : 0.01
#OFFSET      : -0.2
#SIGNALTYPE  : EDS
#CHOFFSET    : 20.0
#LIVETIME    : 120.0
#REALTIME    : 154.287
#BEAMKV      : 30.0
#MAGCAM      : 1566.0
#XTILTSTGE   : 0.0
#AZIMANGLE   : 0.0
#ELEVANGLE   : 35.0
#XPOSITION mm: 24.6591
#YPOSITION mm: 14.8393
#ZPOSITION mm: 9.9088
##OXINSTPT   : 5
##OXINSTSTROB: 36.12
##OXINSTNDET : 1
##OXINSTELEMS: 26,13
##OXINSTLABEL: 26, 6.404, Fe
##OXINSTLABEL: 26, 7.058, Fe
##OXINSTLABEL: 26, 0.703, Fe
##OXINSTLABEL: 26, 0.615, Fe
##OXINSTLABEL: 13, 1.487, Al
#SPECTRUM    : Spectral Data Starts Here
-0.20000, 0.0
-0.18000, 0.0
-0.16000, 0.0
-0.14000, 0.0
-0.12000, 0.0
-0.10000, 0.0
-0.08000, 0.0
-0.06000, 2.0
-0.04000, 71.0
-0.02000, 1087.0
0.00000, 5009.0
0.02000, 8620.0
0.04000, 4621.0
0.06000, 764.0
0.08000, 268.0
0.10000, 181.0
0.12000, 128.0
0.14000, 107.0
0.16000, 111.0
0.18000, 108.0
0.20000, 87.0
0.22000, 114.0
0.24000, 187.0
0.26000, 341.0
0.28000, 325.0
0.30000, 174.0
0.32000, 112.0
0.34000, 101.0
0.36000, 102.0
0.38000, 100.0
0.40000, 127.0
0.42000, 134.0
0.44000, 135.0
0.46000, 142.0
0.48000, 197.0
0.50000, 239.0
0.52000, 262.0
0.54000, 260.0
0.56000, 211.0
0.58000, 205.0
0.60000, 220.0
0.62000, 246.0
0.64000, 280.0
0.66000, 284.0
0.68000, 296.0
0.70000, 308.0
0.72000, 330.0
0.74000, 363.0
0.76000, 372.0
0.78000, 409.0
0.80000, 454.0
0.82000, 438.0
0.84000, 465.0
0.86000, 523.0
0.88000, 528.0
0.90000, 521.0
0.92000, 570.0
0.94000, 606.0
0.96000, 600.0
0.98000, 653.0
1.00000, 669.0
1.02000, 703.0
1.04000, 758.0
1.06000, 793.0
1.08000, 777.0
1.10000, 815.0
1.12000, 905.0
1.14000, 943.0
1.16000, 960.0
1.18000, 1043.0
1.20000, 1261.0
1.22000, 1740.0
1.24000, 2306.0
1.26000, 2678.0
1.28000, 2435.0
1.30000, 1956.0
1.32000, 1808.0
1.34000, 1836.0
1.36000, 1978.0
1.38000, 2434.0
1.40000, 4926.0
1.42000, 16719.0
1.44000, 54034.0
1.46000, 123947.0
1.48000, 188352.0
1.50000, 185005.0
1.52000, 118965.0
1.54000, 52504.0
1.56000, 17611.0
1.58000, 5832.0
1.60000, 2045.0
1.62000, 692.0
1.64000, 252.0
1.66000, 158.0
1.68000, 168.0
1.70000, 238.0
1.72000, 357.0
1.74000, 462.0
1.76000, 383.0
1.78000, 299.0
1.80000, 214.0
1.82000, 162.0
1.84000, 139.0
1.86000, 146.0
1.88000, 147.0
1.90000, 166.0
1.92000, 140.0
1.94000, 139.0
1.96000, 147.0
1.98000, 149.0
2.00000, 145.0
2.02000, 146.0
2.04000, 167.0
2.06000, 152.0
2.08000, 149.0
2.10000, 159.0
2.12000, 160.0
2.14000, 168.0
2.16000, 172.0
2.18000, 166.0
2.20000, 186.0
2.22000, 170.0
2.24000, 188.0
2.26000, 179.0
2.28000, 183.0
2.30000, 185.0
2.32000, 200.0
2.34000, 198.0
2.36000, 184.0
2.38000, 209.0
2.40000, 198.0
2.42000, 200.0
2.44000, 192.0
2.46000, 219.0
2.48000, 207.0
2.50000, 208.0
2.52000, 232.0
2.54000, 218.0
2.56000, 191.0
2.58000, 220.0
2.60000, 224.0
2.62000, 252.0
2.64000, 250.0
2.66000, 233.0
2.68000, 262.0
2.70000, 220.0
2.72000, 227.0
2.74000, 267.0
2.76000, 247.0
2.78000, 248.0
2.80000, 255.0
2.82000, 261.0
2.84000, 274.0
2.86000, 254.0
2.88000, 319.0
2.90000, 385.0
2.92000, 510.0
2.94000, 707.0
2.96000, 936.0
2.98000, 1031.0
3.00000, 892.0
3.02000, 712.0
3.04000, 499.0
3.06000, 382.0
3.08000, 306.0
3.10000, 266.0
3.12000, 236.0
3.14000, 244.0
3.16000, 235.0
3.18000, 261.0
3.20000, 246.0
3.22000, 277.0
3.24000, 239.0
3.26000, 282.0
3.28000, 251.0
3.30000, 248.0
3.32000, 250.0
3.34000, 271.0
3.36000, 242.0
3.38000, 259.0
3.40000, 246.0
3.42000, 260.0
3.44000, 240.0
3.46000, 227.0
3.48000, 259.0
3.50000, 256.0
3.52000, 264.0
3.54000, 258.0
3.56000, 241.0
3.58000, 249.0
3.60000, 254.0
3.62000, 273.0
3.64000, 255.0
3.66000, 256.0
3.68000, 273.0
3.70000, 242.0
3.72000, 256.0
3.74000, 254.0
3.76000, 271.0
3.78000, 285.0
3.80000, 265.0
3.82000, 240.0
3.84000, 252.0
3.86000, 252.0
3.88000, 257.0
3.90000, 269.0
3.92000, 264.0
3.94000, 258.0
3.96000, 239.0
3.98000, 260.0
4.00000, 239.0
4.02000, 233.0
4.04000, 238.0
4.06000, 268.0
4.08000, 253.0
4.10000, 261.0
4.12000, 258.0
4.14000, 264.0
4.16000, 258.0
4.18000, 239.0
4.20000, 262.0
4.22000, 261.0
4.24000, 260.0
4.26000, 266.0
4.28000, 236.0
4.30000, 262.0
4.32000, 232.0
4.34000, 229.0
4.36000, 251.0
4.38000, 225.0
4.40000, 234.0
4.42000, 214.0
4.44000, 246.0
4.46000, 253.0
4.48000, 259.0
4.50000, 236.0
4.52000, 252.0
4.54000, 244.0
4.56000, 248.0
4.58000, 251.0
4.60000, 245.0
4.62000, 246.0
4.64000, 248.0
4.66000, 250.0
4.68000, 241.0
4.70000, 230.0
4.72000, 226.0
4.74000, 237.0
4.76000, 227.0
4.78000, 234.0
4.80000, 230.0
4.82000, 237.0
4.84000, 247.0
4.86000, 224.0
4.88000, 239.0
4.90000, 209.0
4.92000, 237.0
4.94000, 226.0
4.96000, 234.0
4.98000, 236.0
5.00000, 237.0
5.02000, 223.0
5.04000, 235.0
5.06000, 216.0
5.08000, 234.0
5.10000, 218.0
5.12000, 213.0
5.14000, 184.0
5.16000, 207.0
5.18000, 197.0
5.20000, 211.0
5.22000, 232.0
5.24000, 212.0
5.26000, 211.0
5.28000, 206.0
5.30000, 209.0
5.32000, 200.0
5.34000, 224.0
5.36000, 222.0
5.38000, 205.0
5.40000, 221.0
5.42000, 217.0
5.44000, 204.0
5.46000, 218.0
5.48000, 218.0
5.50000, 200.0
5.52000, 205.0
5.54000, 210.0
5.56000, 202.0
5.58000, 215.0
5.60000, 223.0
5.62000, 191.0
5.64000, 211.0
5.66000, 201.0
5.68000, 182.0
5.70000, 206.0
5.72000, 181.0
5.74000, 195.0
5.76000, 193.0
5.78000, 220.0
5.80000, 228.0
5.82000, 259.0
5.84000, 282.0
5.86000, 292.0
5.88000, 332.0
5.90000, 352.0
5.92000, 330.0
5.94000, 273.0
5.96000, 273.0
5.98000, 234.0
6.00000, 212.0
6.02000, 194.0
6.04000, 194.0
6.06000, 181.0
6.08000, 167.0
6.10000, 191.0
6.12000, 183.0
6.14000, 176.0
6.16000, 160.0
6.18000, 187.0
6.20000, 182.0
6.22000, 184.0
6.24000, 185.0
6.26000, 175.0
6.28000, 162.0
6.30000, 172.0
6.32000, 186.0
6.34000, 186.0
6.36000, 210.0
6.38000, 210.0
6.40000, 187.0
6.42000, 194.0
6.44000, 206.0
6.46000, 210.0
6.48000, 221.0
6.50000, 192.0
6.52000, 181.0
6.54000, 163.0
6.56000, 185.0
6.58000, 164.0
6.60000, 160.0
6.62000, 162.0
6.64000, 182.0
6.66000, 146.0
6.68000, 171.0
6.70000, 170.0
6.72000, 174.0
6.74000, 166.0
6.76000, 177.0
6.78000, 148.0
6.80000, 159.0
6.82000, 160.0
6.84000, 176.0
6.86000, 153.0
6.88000, 164.0
6.90000, 151.0
6.92000, 163.0
6.94000, 144.0
6.96000, 161.0
6.98000, 161.0
7.00000, 161.0
7.02000, 171.0
7.04000, 163.0
7.06000, 171.0
7.08000, 151.0
7.10000, 156.0
7.12000, 154.0
7.14000, 141.0
7.16000, 151.0
7.18000, 144.0
7.20000, 141.0
7.22000, 127.0
7.24000, 138.0
7.26000, 166.0
7.28000, 149.0
7.30000, 147.0
7.32000, 148.0
7.34000, 140.0
7.36000, 154.0
7.38000, 137.0
7.40000, 147.0
7.42000, 144.0
7.44000, 150.0
7.46000, 132.0
7.48000, 152.0
7.50000, 146.0
7.52000, 140.0
7.54000, 152.0
7.56000, 159.0
7.58000, 150.0
7.60000, 138.0
7.62000, 143.0
7.64000, 136.0
7.66000, 112.0
7.68000, 137.0
7.70000, 135.0
7.72000, 150.0
7.74000, 138.0
7.76000, 138.0
7.78000, 131.0
7.80000, 131.0
7.82000, 121.0
7.84000, 123.0
7.86000, 125.0
7.88000, 131.0
7.90000, 130.0
7.92000, 129.0
7.94000, 123.0
7.96000, 133.0
7.98000, 143.0
8.00000, 132.0
8.02000, 133.0
8.04000, 124.0
8.06000, 140.0
8.08000, 131.0
8.10000, 130.0
8.12000, 137.0
8.14000, 123.0
8.16000, 122.0
8.18000, 135.0
8.20000, 117.0
8.22000, 112.0
8.24000, 134.0
8.26000, 127.0
8.28000, 128.0
8.30000, 135.0
8.32000, 97.0
8.34000, 115.0
8.36000, 117.0
8.38000, 120.0
8.40000, 112.0
8.42000, 108.0
8.44000, 132.0
8.46000, 118.0
8.48000, 132.0
8.50000, 117.0
8.52000, 134.0
8.54000, 121.0
8.56000, 125.0
8.58000, 132.0
8.60000, 114.0
8.62000, 123.0
8.64000, 110.0
8.66000, 99.0
8.68000, 111.0
8.70000, 106.0
8.72000, 109.0
8.74000, 111.0
8.76000, 121.0
8.78000, 116.0
8.80000, 104.0
8.82000, 116.0
8.84000, 104.0
8.86000, 115.0
8.88000, 112.0
8.90000, 139.0
8.92000, 97.0
8.94000, 99.0
8.96000, 119.0
8.98000, 97.0
9.00000, 116.0
9.02000, 112.0
9.04000, 109.0
9.06000, 109.0
9.08000, 102.0
9.10000, 111.0
9.12000, 107.0
9.14000, 95.0
9.16000, 102.0
9.18000, 103.0
9.20000, 111.0
9.22000, 99.0
9.24000, 97.0
9.26000, 101.0
9.28000, 109.0
9.30000, 92.0
9.32000, 102.0
9.34000, 96.0
9.36000, 113.0
9.38000, 108.0
9.40000, 93.0
9.42000, 100.0
9.44000, 83.0
9.46000, 101.0
9.48000, 92.0
9.50000, 96.0
9.52000, 111.0
9.54000, 96.0
9.56000, 85.0
9.58000, 102.0
9.60000, 108.0
9.62000, 88.0
9.64000, 101.0
9.66000, 85.0
9.68000, 95.0
9.70000, 109.0
9.72000, 107.0
9.74000, 93.0
9.76000, 90.0
9.78000, 92.0
9.80000, 96.0
9.82000, 88.0
9.84000, 97.0
9.86000, 82.0
9.88000, 100.0
9.90000, 93.0
9.92000, 96.0
9.94000, 95.0
9.96000, 80.0
9.98000, 95.0
10.00000, 104.0
10.02000, 96.0
10.04000, 88.0
10.06000, 82.0
10.08000, 92.0
10.10000, 89.0
10.12000, 76.0
10.14000, 81.0
10.16000, 87.0
10.18000, 87.0
10.20000, 81.0
10.22000, 84.0
10.24000, 83.0
10.26000, 75.0
10.28000, 72.0
10.30000, 100.0
10.32000, 85.0
10.34000, 95.0
10.36000, 86.0
10.38000, 83.0
10.40000, 79.0
10.42000, 91.0
10.44000, 82.0
10.46000, 83.0
10.48000, 87.0
10.50000, 88.0
10.52000, 79.0
10.54000, 72.0
10.56000, 89.0
10.58000, 71.0
10.60000, 86.0
10.62000, 80.0
10.64000, 83.0
10.66000, 62.0
10.68000, 81.0
10.70000, 75.0
10.72000, 82.0
10.74000, 79.0
10.76000, 74.0
10.78000, 76.0
10.80000, 82.0
10.82000, 70.0
10.84000, 68.0
10.86000, 83.0
10.88000, 80.0
10.90000, 78.0
10.92000, 65.0
10.94000, 73.0
10.96000, 73.0
10.98000, 70.0
11.00000, 80.0
11.02000, 60.0
11.04000, 73.0
11.06000, 68.0
11.08000, 66.0
11.10000, 59.0
11.12000, 66.0
11.14000, 77.0
11.16000, 76.0
11.18000, 77.0
11.20000, 64.0
11.22000, 62.0
11.24000, 70.0
11.26000, 67.0
11.28000, 73.0
11.30000, 70.0
11.32000, 69.0
11.34000, 70.0
11.36000, 66.0
11.38000, 69.0
11.40000, 74.0
11.42000, 55.0
11.44000, 62.0
11.46000, 75.0
11.48000, 66.0
11.50000, 67.0
11.52000, 68.0
11.54000, 60.0
11.56000, 60.0
11.58000, 66.0
11.60000, 65.0
11.62000, 64.0
11.64000, 66.0
11.66000, 70.0
11.68000, 71.0
11.70000, 67.0
11.72000, 62.0
11.74000, 58.0
11.76000, 71.0
11.78000, 60.0
11.80000, 57.0
11.82000, 63.0
11.84000, 61.0
11.86000, 59.0
11.88000, 52.0
11.90000, 71.0
11.92000, 65.0
11.94000, 50.0
11.96000, 59.0
11.98000, 61.0
12.00000, 62.0
12.02000, 53.0
12.04000, 59.0
12.06000, 70.0
12.08000, 60.0
12.10000, 60.0
12.12000, 57.0
12.14000, 61.0
12.16000, 52.0
12.18000, 47.0
12.20000, 61.0
12.22000, 64.0
12.24000, 51.0
12.26000, 59.0
12.28000, 55.0
12.30000, 61.0
12.32000, 58.0
12.34000, 57.0
12.36000, 65.0
12.38000, 55.0
12.40000, 52.0
12.42000, 50.0
12.44000, 56.0
12.46000, 57.0
12.48000, 53.0
12.50000, 54.0
12.52000, 56.0
12.54000, 52.0
12.56000, 41.0
12.58000, 54.0
12.60000, 56.0
12.62000, 58.0
12.64000, 44.0
12.66000, 54.0
12.68000, 58.0
12.70000, 49.0
12.72000, 47.0
12.74000, 45.0
12.76000, 54.0
12.78000, 51.0
12.80000, 54.0
12.82000, 54.0
12.84000, 47.0
12.86000, 47.0
12.88000, 44.0
12.90000, 49.0
12.92000, 55.0
12.94000, 43.0
12.96000, 44.0
12.98000, 55.0
13.00000, 48.0
13.02000, 47.0
13.04000, 47.0
13.06000, 44.0
13.08000, 52.0
13.10000, 50.0
13.12000, 49.0
13.14000, 53.0
13.16000, 42.0
13.18000, 62.0
13.20000, 49.0
13.22000, 41.0
13.24000, 41.0
13.26000, 52.0
13.28000, 45.0
13.30000, 44.0
13.32000, 45.0
13.34000, 43.0
13.36000, 36.0
13.38000, 42.0
13.40000, 48.0
13.42000, 40.0
13.44000, 48.0
13.46000, 43.0
13.48000, 44.0
13.50000, 51.0
13.52000, 52.0
13.54000, 47.0
13.56000, 40.0
13.58000, 42.0
13.60000, 39.0
13.62000, 30.0
13.64000, 35.0
13.66000, 38.0
13.68000, 36.0
13.70000, 36.0
13.72000, 41.0
13.74000, 41.0
13.76000, 38.0
13.78000, 39.0
13.80000, 35.0
13.82000, 39.0
13.84000, 28.0
13.86000, 45.0
13.88000, 36.0
13.90000, 38.0
13.92000, 38.0
13.94000, 42.0
13.96000, 41.0
13.98000, 42.0
14.00000, 43.0
14.02000, 40.0
14.04000, 34.0
14.06000, 36.0
14.08000, 33.0
14.10000, 33.0
14.12000, 37.0
14.14000, 40.0
14.16000, 36.0
14.18000, 36.0
14.20000, 33.0
14.22000, 37.0
14.24000, 26.0
14.26000, 43.0
14.28000, 31.0
14.30000, 34.0
14.32000, 36.0
14.34000, 44.0
14.36000, 34.0
14.38000, 37.0
14.40000, 30.0
14.42000, 29.0
14.44000, 36.0
14.46000, 32.0
14.48000, 36.0
14.50000, 30.0
14.52000, 34.0
14.54000, 31.0
14.56000, 26.0
14.58000, 32.0
14.60000, 34.0
14.62000, 41.0
14.64000, 42.0
14.66000, 36.0
14.68000, 29.0
14.70000, 30.0
14.72000, 29.0
14.74000, 28.0
14.76000, 25.0
14.78000, 21.0
14.80000, 31.0
14.82000, 30.0
14.84000, 27.0
14.86000, 36.0
14.88000, 26.0
14.90000, 24.0
14.92000, 25.0
14.94000, 36.0
14.96000, 32.0
14.98000, 31.0
15.00000, 27.0
15.02000, 35.0
15.04000, 27.0
15.06000, 34.0
15.08000, 29.0
15.10000, 31.0
15.12000, 29.0
15.14000, 35.0
15.16000, 26.0
15.18000, 25.0
15.20000, 27.0
15.22000, 30.0
15.24000, 29.0
15.26000, 25.0
15.28000, 28.0
15.30000, 29.0
15.32000, 23.0
15.34000, 25.0
15.36000, 17.0
15.38000, 27.0
15.40000, 32.0
15.42000, 31.0
15.44000, 24.0
15.46000, 23.0
15.48000, 33.0
15.50000, 29.0
15.52000, 24.0
15.54000, 23.0
15.56000, 21.0
15.58000, 22.0
15.60000, 23.0
15.62000, 18.0
15.64000, 28.0
15.66000, 24.0
15.68000, 27.0
15.70000, 22.0
15.72000, 33.0
15.74000, 26.0
15.76000, 27.0
15.78000, 18.0
15.80000, 20.0
15.82000, 23.0
15.84000, 16.0
15.86000, 25.0
15.88000, 25.0
15.90000, 22.0
15.92000, 24.0
15.94000, 22.0
15.96000, 22.0
15.98000, 21.0
16.00000, 27.0
16.02000, 29.0
16.04000, 22.0
16.06000, 25.0
16.08000, 22.0
16.10000, 21.0
16.12000, 24.0
16.14000, 22.0
16.16000, 25.0
16.18000, 23.0
16.20000, 24.0
16.22000, 22.0
16.24000, 24.0
16.26000, 18.0
16.28000, 17.0
16.30000, 19.0
16.32000, 24.0
16.34000, 21.0
16.36000, 20.0
16.38000, 21.0
16.40000, 20.0
16.42000, 18.0
16.44000, 18.0
16.46000, 20.0
16.48000, 15.0
16.50000, 17.0
16.52000, 21.0
16.54000, 17.0
16.56000, 20.0
16.58000, 22.0
16.60000, 18.0
16.62000, 27.0
16.64000, 21.0
16.66000, 21.0
16.68000, 16.0
16.70000, 19.0
16.72000, 16.0
16.74000, 24.0
16.76000, 19.0
16.78000, 18.0
16.80000, 18.0
16.82000, 18.0
16.84000, 13.0
16.86000, 14.0
16.88000, 17.0
16.90000, 18.0
16.92000, 19.0
16.94000, 16.0
16.96000, 13.0
16.98000, 16.0
17.00000, 22.0
17.02000, 17.0
17.04000, 20.0
17.06000, 20.0
17.08000, 13.0
17.10000, 16.0
17.12000, 12.0
17.14000, 18.0
17.16000, 14.0
17.18000, 20.0
17.20000, 17.0
17.22000, 17.0
17.24000, 12.0
17.26000, 18.0
17.28000, 16.0
17.30000, 19.0
17.32000, 13.0
17.34000, 15.0
17.36000, 14.0
17.38000, 15.0
17.40000, 15.0
17.42000, 14.0
17.44000, 18.0
17.46000, 16.0
17.48000, 18.0
17.50000, 13.0
17.52000, 10.0
17.54000, 15.0
17.56000, 15.0
17.58000, 15.0
17.60000, 14.0
17.62000, 18.0
17.64000, 12.0
17.66000, 17.0
17.68000, 17.0
17.70000, 9.0
17.72000, 19.0
17.74000, 14.0
17.76000, 16.0
17.78000, 14.0
17.80000, 17.0
17.82000, 13.0
17.84000, 12.0
17.86000, 15.0
17.88000, 20.0
17.90000, 23.0
17.92000, 8.0
17.94000, 10.0
17.96000, 17.0
17.98000, 10.0
18.00000, 12.0
18.02000, 13.0
18.04000, 12.0
18.06000, 18.0
18.08000, 15.0
18.10000, 18.0
18.12000, 15.0
18.14000, 8.0
18.16000, 11.0
18.18000, 17.0
18.20000, 13.0
18.22000, 15.0
18.24000, 11.0
18.26000, 12.0
18.28000, 15.0
18.30000, 17.0
18.32000, 11.0
18.34000, 16.0
18.36000, 10.0
18.38000, 17.0
18.40000, 13.0
18.42000, 15.0
18.44000, 10.0
18.46000, 14.0
18.48000, 12.0
18.50000, 15.0
18.52000, 9.0
18.54000, 13.0
18.56000, 12.0
18.58000, 10.0
18.60000, 10.0
18.62000, 9.0
18.64000, 11.0
18.66000, 12.0
18.68000, 12.0
18.70000, 11.0
18.72000, 10.0
18.74000, 12.0
18.76000, 10.0
18.78000, 7.0
18.80000, 14.0
18.82000, 15.0
18.84000, 10.0
18.86000, 13.0
18.88000, 10.0
18.90000, 8.0
18.92000, 8.0
18.94000, 8.0
18.96000, 12.0
18.98000, 12.0
19.00000, 11.0
19.02000, 16.0
19.04000, 11.0
19.06000, 12.0
19.08000, 11.0
19.10000, 7.0
19.12000, 10.0
19.14000, 7.0
19.16000, 13.0
19.18000, 9.0
19.20000, 8.0
19.22000, 8.0
19.24000, 11.0
19.26000, 5.0
19.28000, 10.0
19.30000, 10.0
19.32000, 9.0
19.34000, 5.0
19.36000, 10.0
19.38000, 9.0
19.40000, 10.0
19.42000, 14.0
19.44000, 11.0
19.46000, 9.0
19.48000, 10.0
19.50000, 7.0
19.52000, 8.0
19.54000, 9.0
19.56000, 10.0
19.58000, 7.0
19.60000, 7.0
19.62000, 8.0
19.64000, 8.0
19.66000, 5.0
19.68000, 11.0
19.70000, 6.0
19.72000, 9.0
19.74000, 12.0
19.76000, 7.0
19.78000, 5.0
19.80000, 10.0
19.82000, 16.0
19.84000, 15.0
19.86000, 10.0
19.88000, 8.0
19.90000, 9.0
19.92000, 8.0
19.94000, 8.0
19.96000, 7.0
19.98000, 6.0
20.00000, 8.0
20.02000, 6.0
20.04000, 6.0
20.06000, 5.0
20.08000, 8.0
20.10000, 5.0
20.12000, 6.0
20.14000, 7.0
20.16000, 11.0
20.18000, 7.0
20.20000, 3.0
20.22000, 5.0
20.24000, 9.0
20.26000, 5.0
20.27000, 5.0
#ENDOFDATA   :