File: data/2022-09-06_EDS-SEM-APREO/Cu_30kV.emsa
#FORMAT      : EMSA/MAS Spectral Data File
#VERSION     : 1.0
#TITLE       : Cu_30kV
#DATE        : 06-SEP-2022
#TIME        : 17:34
#OWNER       :
#NPOINTS     : 2048.0
#NCOLUMNS    : 1.0
#XUNITS      : keV
#YUNITS      : counts
#DATATYPE    : XY
#XPERCHAN    : 0.01
#OFFSET      : -0.2
#SIGNALTYPE  : EDS
#CHOFFSET    : 20.0
#LIVETIME    : 120.0
#REALTIME    : 141.932
#BEAMKV      : 30.0
#MAGCAM      : 1958.0
#XTILTSTGE   : 0.0
#AZIMANGLE   : 0.0
#ELEVANGLE   : 35.0
#XPOSITION mm: 1.6789
#YPOSITION mm: 7.2137
#ZPOSITION mm: 9.9088
##OXINSTPT   : 5
##OXINSTSTROB: 36.28
##OXINSTNDET : 1
##OXINSTELEMS: 8,6,29
##OXINSTLABEL: 8, 0.522, O
##OXINSTLABEL: 6, 0.277, C
##OXINSTLABEL: 29, 8.048, Cu
##OXINSTLABEL: 29, 8.905, Cu
##OXINSTLABEL: 29, 0.930, Cu
##OXINSTLABEL: 29, 0.832, Cu
##OXINSTLABEL: 29, 0.811, Cu
#SPECTRUM    : Spectral Data Starts Here
-0.20000, 0.0
-0.18000, 0.0
-0.16000, 0.0
-0.14000, 0.0
-0.12000, 0.0
-0.10000, 0.0
-0.08000, 0.0
-0.06000, 2.0
-0.04000, 74.0
-0.02000, 1056.0
0.00000, 4971.0
0.02000, 9010.0
0.04000, 5289.0
0.06000, 1166.0
0.08000, 624.0
0.10000, 646.0
0.12000, 599.0
0.14000, 605.0
0.16000, 737.0
0.18000, 968.0
0.20000, 2155.0
0.22000, 9041.0
0.24000, 37710.0
0.26000, 85291.0
0.28000, 83775.0
0.30000, 34030.0
0.32000, 5701.0
0.34000, 467.0
0.36000, 133.0
0.38000, 150.0
0.40000, 141.0
0.42000, 125.0
0.44000, 170.0
0.46000, 372.0
0.48000, 1178.0
0.50000, 3178.0
0.52000, 4772.0
0.54000, 3752.0
0.56000, 1506.0
0.58000, 414.0
0.60000, 163.0
0.62000, 138.0
0.64000, 147.0
0.66000, 177.0
0.68000, 166.0
0.70000, 198.0
0.72000, 225.0
0.74000, 262.0
0.76000, 267.0
0.78000, 289.0
0.80000, 260.0
0.82000, 293.0
0.84000, 316.0
0.86000, 340.0
0.88000, 334.0
0.90000, 336.0
0.92000, 357.0
0.94000, 380.0
0.96000, 375.0
0.98000, 407.0
1.00000, 397.0
1.02000, 427.0
1.04000, 433.0
1.06000, 454.0
1.08000, 465.0
1.10000, 475.0
1.12000, 474.0
1.14000, 494.0
1.16000, 508.0
1.18000, 531.0
1.20000, 542.0
1.22000, 558.0
1.24000, 575.0
1.26000, 589.0
1.28000, 571.0
1.30000, 618.0
1.32000, 559.0
1.34000, 626.0
1.36000, 633.0
1.38000, 625.0
1.40000, 623.0
1.42000, 629.0
1.44000, 675.0
1.46000, 677.0
1.48000, 691.0
1.50000, 703.0
1.52000, 710.0
1.54000, 668.0
1.56000, 749.0
1.58000, 711.0
1.60000, 704.0
1.62000, 719.0
1.64000, 695.0
1.66000, 750.0
1.68000, 848.0
1.70000, 1092.0
1.72000, 1474.0
1.74000, 1617.0
1.76000, 1573.0
1.78000, 1259.0
1.80000, 1031.0
1.82000, 886.0
1.84000, 826.0
1.86000, 816.0
1.88000, 762.0
1.90000, 743.0
1.92000, 754.0
1.94000, 762.0
1.96000, 832.0
1.98000, 791.0
2.00000, 778.0
2.02000, 746.0
2.04000, 824.0
2.06000, 783.0
2.08000, 808.0
2.10000, 844.0
2.12000, 813.0
2.14000, 796.0
2.16000, 804.0
2.18000, 818.0
2.20000, 808.0
2.22000, 845.0
2.24000, 896.0
2.26000, 871.0
2.28000, 1013.0
2.30000, 1133.0
2.32000, 1117.0
2.34000, 1064.0
2.36000, 923.0
2.38000, 857.0
2.40000, 839.0
2.42000, 799.0
2.44000, 804.0
2.46000, 810.0
2.48000, 847.0
2.50000, 814.0
2.52000, 814.0
2.54000, 818.0
2.56000, 826.0
2.58000, 788.0
2.60000, 803.0
2.62000, 803.0
2.64000, 783.0
2.66000, 770.0
2.68000, 786.0
2.70000, 790.0
2.72000, 777.0
2.74000, 773.0
2.76000, 773.0
2.78000, 722.0
2.80000, 762.0
2.82000, 711.0
2.84000, 736.0
2.86000, 743.0
2.88000, 737.0
2.90000, 764.0
2.92000, 782.0
2.94000, 756.0
2.96000, 741.0
2.98000, 758.0
3.00000, 751.0
3.02000, 722.0
3.04000, 722.0
3.06000, 737.0
3.08000, 752.0
3.10000, 688.0
3.12000, 722.0
3.14000, 693.0
3.16000, 709.0
3.18000, 736.0
3.20000, 673.0
3.22000, 716.0
3.24000, 702.0
3.26000, 681.0
3.28000, 661.0
3.30000, 642.0
3.32000, 643.0
3.34000, 662.0
3.36000, 648.0
3.38000, 649.0
3.40000, 669.0
3.42000, 668.0
3.44000, 679.0
3.46000, 695.0
3.48000, 651.0
3.50000, 618.0
3.52000, 642.0
3.54000, 640.0
3.56000, 627.0
3.58000, 656.0
3.60000, 631.0
3.62000, 667.0
3.64000, 582.0
3.66000, 615.0
3.68000, 581.0
3.70000, 605.0
3.72000, 580.0
3.74000, 600.0
3.76000, 580.0
3.78000, 617.0
3.80000, 594.0
3.82000, 554.0
3.84000, 568.0
3.86000, 569.0
3.88000, 562.0
3.90000, 577.0
3.92000, 571.0
3.94000, 567.0
3.96000, 560.0
3.98000, 535.0
4.00000, 529.0
4.02000, 587.0
4.04000, 537.0
4.06000, 561.0
4.08000, 546.0
4.10000, 530.0
4.12000, 524.0
4.14000, 542.0
4.16000, 514.0
4.18000, 513.0
4.20000, 510.0
4.22000, 498.0
4.24000, 539.0
4.26000, 499.0
4.28000, 505.0
4.30000, 532.0
4.32000, 492.0
4.34000, 483.0
4.36000, 476.0
4.38000, 492.0
4.40000, 473.0
4.42000, 474.0
4.44000, 524.0
4.46000, 477.0
4.48000, 456.0
4.50000, 479.0
4.52000, 479.0
4.54000, 461.0
4.56000, 468.0
4.58000, 456.0
4.60000, 491.0
4.62000, 461.0
4.64000, 474.0
4.66000, 448.0
4.68000, 429.0
4.70000, 434.0
4.72000, 421.0
4.74000, 465.0
4.76000, 440.0
4.78000, 443.0
4.80000, 417.0
4.82000, 429.0
4.84000, 456.0
4.86000, 421.0
4.88000, 407.0
4.90000, 427.0
4.92000, 455.0
4.94000, 428.0
4.96000, 429.0
4.98000, 417.0
5.00000, 425.0
5.02000, 419.0
5.04000, 427.0
5.06000, 374.0
5.08000, 430.0
5.10000, 404.0
5.12000, 387.0
5.14000, 407.0
5.16000, 390.0
5.18000, 384.0
5.20000, 369.0
5.22000, 362.0
5.24000, 385.0
5.26000, 387.0
5.28000, 381.0
5.30000, 363.0
5.32000, 380.0
5.34000, 379.0
5.36000, 368.0
5.38000, 372.0
5.40000, 340.0
5.42000, 340.0
5.44000, 367.0
5.46000, 362.0
5.48000, 361.0
5.50000, 329.0
5.52000, 332.0
5.54000, 351.0
5.56000, 344.0
5.58000, 345.0
5.60000, 344.0
5.62000, 348.0
5.64000, 315.0
5.66000, 358.0
5.68000, 375.0
5.70000, 331.0
5.72000, 311.0
5.74000, 362.0
5.76000, 333.0
5.78000, 348.0
5.80000, 311.0
5.82000, 316.0
5.84000, 342.0
5.86000, 305.0
5.88000, 318.0
5.90000, 333.0
5.92000, 290.0
5.94000, 305.0
5.96000, 314.0
5.98000, 305.0
6.00000, 294.0
6.02000, 319.0
6.04000, 340.0
6.06000, 299.0
6.08000, 323.0
6.10000, 304.0
6.12000, 304.0
6.14000, 275.0
6.16000, 294.0
6.18000, 297.0
6.20000, 300.0
6.22000, 296.0
6.24000, 281.0
6.26000, 302.0
6.28000, 282.0
6.30000, 297.0
6.32000, 291.0
6.34000, 306.0
6.36000, 275.0
6.38000, 267.0
6.40000, 274.0
6.42000, 269.0
6.44000, 292.0
6.46000, 268.0
6.48000, 272.0
6.50000, 273.0
6.52000, 269.0
6.54000, 265.0
6.56000, 269.0
6.58000, 247.0
6.60000, 266.0
6.62000, 265.0
6.64000, 270.0
6.66000, 275.0
6.68000, 263.0
6.70000, 250.0
6.72000, 275.0
6.74000, 271.0
6.76000, 263.0
6.78000, 244.0
6.80000, 251.0
6.82000, 241.0
6.84000, 260.0
6.86000, 245.0
6.88000, 266.0
6.90000, 250.0
6.92000, 250.0
6.94000, 243.0
6.96000, 231.0
6.98000, 255.0
7.00000, 246.0
7.02000, 236.0
7.04000, 233.0
7.06000, 246.0
7.08000, 226.0
7.10000, 262.0
7.12000, 240.0
7.14000, 243.0
7.16000, 243.0
7.18000, 233.0
7.20000, 229.0
7.22000, 223.0
7.24000, 228.0
7.26000, 230.0
7.28000, 223.0
7.30000, 230.0
7.32000, 214.0
7.34000, 209.0
7.36000, 214.0
7.38000, 229.0
7.40000, 234.0
7.42000, 236.0
7.44000, 217.0
7.46000, 208.0
7.48000, 225.0
7.50000, 213.0
7.52000, 224.0
7.54000, 212.0
7.56000, 219.0
7.58000, 217.0
7.60000, 207.0
7.62000, 191.0
7.64000, 198.0
7.66000, 202.0
7.68000, 203.0
7.70000, 188.0
7.72000, 204.0
7.74000, 216.0
7.76000, 203.0
7.78000, 207.0
7.80000, 197.0
7.82000, 197.0
7.84000, 221.0
7.86000, 220.0
7.88000, 241.0
7.90000, 334.0
7.92000, 435.0
7.94000, 594.0
7.96000, 804.0
7.98000, 1021.0
8.00000, 1301.0
8.02000, 1484.0
8.04000, 1506.0
8.06000, 1442.0
8.08000, 1274.0
8.10000, 1010.0
8.12000, 740.0
8.14000, 539.0
8.16000, 394.0
8.18000, 273.0
8.20000, 236.0
8.22000, 200.0
8.24000, 216.0
8.26000, 198.0
8.28000, 199.0
8.30000, 180.0
8.32000, 184.0
8.34000, 186.0
8.36000, 183.0
8.38000, 191.0
8.40000, 179.0
8.42000, 163.0
8.44000, 166.0
8.46000, 196.0
8.48000, 174.0
8.50000, 168.0
8.52000, 172.0
8.54000, 175.0
8.56000, 164.0
8.58000, 166.0
8.60000, 182.0
8.62000, 162.0
8.64000, 172.0
8.66000, 164.0
8.68000, 169.0
8.70000, 166.0
8.72000, 167.0
8.74000, 184.0
8.76000, 177.0
8.78000, 199.0
8.80000, 234.0
8.82000, 240.0
8.84000, 289.0
8.86000, 315.0
8.88000, 318.0
8.90000, 323.0
8.92000, 326.0
8.94000, 307.0
8.96000, 262.0
8.98000, 242.0
9.00000, 217.0
9.02000, 172.0
9.04000, 178.0
9.06000, 155.0
9.08000, 143.0
9.10000, 151.0
9.12000, 144.0
9.14000, 153.0
9.16000, 154.0
9.18000, 132.0
9.20000, 145.0
9.22000, 146.0
9.24000, 112.0
9.26000, 139.0
9.28000, 136.0
9.30000, 138.0
9.32000, 146.0
9.34000, 138.0
9.36000, 137.0
9.38000, 156.0
9.40000, 138.0
9.42000, 139.0
9.44000, 148.0
9.46000, 140.0
9.48000, 137.0
9.50000, 135.0
9.52000, 127.0
9.54000, 152.0
9.56000, 125.0
9.58000, 126.0
9.60000, 114.0
9.62000, 121.0
9.64000, 128.0
9.66000, 129.0
9.68000, 126.0
9.70000, 124.0
9.72000, 121.0
9.74000, 139.0
9.76000, 126.0
9.78000, 118.0
9.80000, 119.0
9.82000, 118.0
9.84000, 117.0
9.86000, 125.0
9.88000, 123.0
9.90000, 125.0
9.92000, 132.0
9.94000, 111.0
9.96000, 129.0
9.98000, 136.0
10.00000, 114.0
10.02000, 115.0
10.04000, 120.0
10.06000, 113.0
10.08000, 115.0
10.10000, 104.0
10.12000, 117.0
10.14000, 123.0
10.16000, 131.0
10.18000, 113.0
10.20000, 125.0
10.22000, 114.0
10.24000, 122.0
10.26000, 102.0
10.28000, 118.0
10.30000, 127.0
10.32000, 119.0
10.34000, 101.0
10.36000, 108.0
10.38000, 113.0
10.40000, 111.0
10.42000, 122.0
10.44000, 113.0
10.46000, 90.0
10.48000, 106.0
10.50000, 108.0
10.52000, 113.0
10.54000, 106.0
10.56000, 93.0
10.58000, 106.0
10.60000, 104.0
10.62000, 101.0
10.64000, 108.0
10.66000, 103.0
10.68000, 105.0
10.70000, 92.0
10.72000, 116.0
10.74000, 103.0
10.76000, 101.0
10.78000, 103.0
10.80000, 89.0
10.82000, 96.0
10.84000, 95.0
10.86000, 109.0
10.88000, 100.0
10.90000, 104.0
10.92000, 99.0
10.94000, 95.0
10.96000, 104.0
10.98000, 91.0
11.00000, 88.0
11.02000, 95.0
11.04000, 80.0
11.06000, 92.0
11.08000, 99.0
11.10000, 94.0
11.12000, 89.0
11.14000, 91.0
11.16000, 91.0
11.18000, 84.0
11.20000, 84.0
11.22000, 85.0
11.24000, 84.0
11.26000, 88.0
11.28000, 85.0
11.30000, 88.0
11.32000, 82.0
11.34000, 84.0
11.36000, 82.0
11.38000, 84.0
11.40000, 82.0
11.42000, 83.0
11.44000, 80.0
11.46000, 85.0
11.48000, 88.0
11.50000, 80.0
11.52000, 84.0
11.54000, 67.0
11.56000, 72.0
11.58000, 82.0
11.60000, 78.0
11.62000, 73.0
11.64000, 97.0
11.66000, 81.0
11.68000, 69.0
11.70000, 82.0
11.72000, 88.0
11.74000, 72.0
11.76000, 74.0
11.78000, 82.0
11.80000, 85.0
11.82000, 88.0
11.84000, 71.0
11.86000, 72.0
11.88000, 73.0
11.90000, 72.0
11.92000, 78.0
11.94000, 67.0
11.96000, 76.0
11.98000, 71.0
12.00000, 71.0
12.02000, 71.0
12.04000, 77.0
12.06000, 72.0
12.08000, 73.0
12.10000, 73.0
12.12000, 78.0
12.14000, 68.0
12.16000, 81.0
12.18000, 78.0
12.20000, 74.0
12.22000, 70.0
12.24000, 69.0
12.26000, 60.0
12.28000, 57.0
12.30000, 64.0
12.32000, 72.0
12.34000, 65.0
12.36000, 71.0
12.38000, 59.0
12.40000, 66.0
12.42000, 67.0
12.44000, 67.0
12.46000, 64.0
12.48000, 63.0
12.50000, 70.0
12.52000, 70.0
12.54000, 62.0
12.56000, 64.0
12.58000, 74.0
12.60000, 64.0
12.62000, 52.0
12.64000, 67.0
12.66000, 69.0
12.68000, 56.0
12.70000, 60.0
12.72000, 61.0
12.74000, 57.0
12.76000, 57.0
12.78000, 58.0
12.80000, 64.0
12.82000, 69.0
12.84000, 57.0
12.86000, 55.0
12.88000, 56.0
12.90000, 55.0
12.92000, 53.0
12.94000, 60.0
12.96000, 57.0
12.98000, 67.0
13.00000, 62.0
13.02000, 57.0
13.04000, 69.0
13.06000, 51.0
13.08000, 46.0
13.10000, 56.0
13.12000, 61.0
13.14000, 51.0
13.16000, 58.0
13.18000, 58.0
13.20000, 49.0
13.22000, 57.0
13.24000, 57.0
13.26000, 55.0
13.28000, 56.0
13.30000, 56.0
13.32000, 54.0
13.34000, 48.0
13.36000, 45.0
13.38000, 54.0
13.40000, 44.0
13.42000, 55.0
13.44000, 56.0
13.46000, 48.0
13.48000, 57.0
13.50000, 49.0
13.52000, 46.0
13.54000, 42.0
13.56000, 43.0
13.58000, 48.0
13.60000, 44.0
13.62000, 41.0
13.64000, 53.0
13.66000, 38.0
13.68000, 49.0
13.70000, 42.0
13.72000, 41.0
13.74000, 43.0
13.76000, 42.0
13.78000, 49.0
13.80000, 51.0
13.82000, 51.0
13.84000, 42.0
13.86000, 49.0
13.88000, 46.0
13.90000, 45.0
13.92000, 39.0
13.94000, 46.0
13.96000, 43.0
13.98000, 49.0
14.00000, 44.0
14.02000, 38.0
14.04000, 42.0
14.06000, 35.0
14.08000, 40.0
14.10000, 45.0
14.12000, 45.0
14.14000, 47.0
14.16000, 41.0
14.18000, 47.0
14.20000, 35.0
14.22000, 38.0
14.24000, 38.0
14.26000, 42.0
14.28000, 34.0
14.30000, 44.0
14.32000, 41.0
14.34000, 43.0
14.36000, 36.0
14.38000, 38.0
14.40000, 38.0
14.42000, 38.0
14.44000, 38.0
14.46000, 34.0
14.48000, 39.0
14.50000, 33.0
14.52000, 40.0
14.54000, 38.0
14.56000, 37.0
14.58000, 43.0
14.60000, 43.0
14.62000, 37.0
14.64000, 38.0
14.66000, 34.0
14.68000, 46.0
14.70000, 36.0
14.72000, 37.0
14.74000, 33.0
14.76000, 30.0
14.78000, 36.0
14.80000, 34.0
14.82000, 25.0
14.84000, 31.0
14.86000, 40.0
14.88000, 41.0
14.90000, 17.0
14.92000, 30.0
14.94000, 39.0
14.96000, 33.0
14.98000, 33.0
15.00000, 29.0
15.02000, 34.0
15.04000, 42.0
15.06000, 39.0
15.08000, 34.0
15.10000, 36.0
15.12000, 36.0
15.14000, 33.0
15.16000, 31.0
15.18000, 26.0
15.20000, 30.0
15.22000, 28.0
15.24000, 33.0
15.26000, 28.0
15.28000, 26.0
15.30000, 26.0
15.32000, 35.0
15.34000, 26.0
15.36000, 21.0
15.38000, 24.0
15.40000, 28.0
15.42000, 27.0
15.44000, 29.0
15.46000, 32.0
15.48000, 31.0
15.50000, 33.0
15.52000, 26.0
15.54000, 29.0
15.56000, 28.0
15.58000, 28.0
15.60000, 25.0
15.62000, 32.0
15.64000, 27.0
15.66000, 26.0
15.68000, 30.0
15.70000, 26.0
15.72000, 21.0
15.74000, 29.0
15.76000, 25.0
15.78000, 22.0
15.80000, 22.0
15.82000, 27.0
15.84000, 29.0
15.86000, 24.0
15.88000, 24.0
15.90000, 26.0
15.92000, 30.0
15.94000, 22.0
15.96000, 25.0
15.98000, 28.0
16.00000, 31.0
16.02000, 23.0
16.04000, 31.0
16.06000, 20.0
16.08000, 24.0
16.10000, 23.0
16.12000, 21.0
16.14000, 26.0
16.16000, 18.0
16.18000, 21.0
16.20000, 23.0
16.22000, 24.0
16.24000, 22.0
16.26000, 18.0
16.28000, 19.0
16.30000, 21.0
16.32000, 19.0
16.34000, 25.0
16.36000, 21.0
16.38000, 17.0
16.40000, 20.0
16.42000, 18.0
16.44000, 18.0
16.46000, 25.0
16.48000, 15.0
16.50000, 23.0
16.52000, 19.0
16.54000, 19.0
16.56000, 16.0
16.58000, 21.0
16.60000, 21.0
16.62000, 27.0
16.64000, 20.0
16.66000, 18.0
16.68000, 24.0
16.70000, 23.0
16.72000, 21.0
16.74000, 17.0
16.76000, 17.0
16.78000, 15.0
16.80000, 20.0
16.82000, 17.0
16.84000, 18.0
16.86000, 19.0
16.88000, 14.0
16.90000, 15.0
16.92000, 18.0
16.94000, 21.0
16.96000, 23.0
16.98000, 16.0
17.00000, 16.0
17.02000, 22.0
17.04000, 20.0
17.06000, 15.0
17.08000, 15.0
17.10000, 14.0
17.12000, 15.0
17.14000, 16.0
17.16000, 18.0
17.18000, 17.0
17.20000, 15.0
17.22000, 22.0
17.24000, 20.0
17.26000, 18.0
17.28000, 14.0
17.30000, 18.0
17.32000, 19.0
17.34000, 14.0
17.36000, 17.0
17.38000, 18.0
17.40000, 16.0
17.42000, 18.0
17.44000, 16.0
17.46000, 12.0
17.48000, 17.0
17.50000, 12.0
17.52000, 14.0
17.54000, 17.0
17.56000, 15.0
17.58000, 13.0
17.60000, 17.0
17.62000, 25.0
17.64000, 12.0
17.66000, 12.0
17.68000, 17.0
17.70000, 11.0
17.72000, 14.0
17.74000, 16.0
17.76000, 12.0
17.78000, 17.0
17.80000, 15.0
17.82000, 14.0
17.84000, 12.0
17.86000, 16.0
17.88000, 15.0
17.90000, 11.0
17.92000, 8.0
17.94000, 12.0
17.96000, 10.0
17.98000, 13.0
18.00000, 15.0
18.02000, 12.0
18.04000, 12.0
18.06000, 11.0
18.08000, 12.0
18.10000, 17.0
18.12000, 14.0
18.14000, 11.0
18.16000, 15.0
18.18000, 14.0
18.20000, 7.0
18.22000, 10.0
18.24000, 13.0
18.26000, 13.0
18.28000, 15.0
18.30000, 12.0
18.32000, 10.0
18.34000, 16.0
18.36000, 12.0
18.38000, 17.0
18.40000, 11.0
18.42000, 11.0
18.44000, 9.0
18.46000, 10.0
18.48000, 15.0
18.50000, 10.0
18.52000, 10.0
18.54000, 9.0
18.56000, 10.0
18.58000, 13.0
18.60000, 11.0
18.62000, 11.0
18.64000, 12.0
18.66000, 12.0
18.68000, 11.0
18.70000, 11.0
18.72000, 14.0
18.74000, 15.0
18.76000, 9.0
18.78000, 9.0
18.80000, 12.0
18.82000, 8.0
18.84000, 8.0
18.86000, 9.0
18.88000, 10.0
18.90000, 8.0
18.92000, 9.0
18.94000, 8.0
18.96000, 8.0
18.98000, 6.0
19.00000, 5.0
19.02000, 11.0
19.04000, 9.0
19.06000, 5.0
19.08000, 9.0
19.10000, 7.0
19.12000, 14.0
19.14000, 12.0
19.16000, 9.0
19.18000, 10.0
19.20000, 10.0
19.22000, 9.0
19.24000, 9.0
19.26000, 10.0
19.28000, 7.0
19.30000, 8.0
19.32000, 4.0
19.34000, 12.0
19.36000, 7.0
19.38000, 7.0
19.40000, 8.0
19.42000, 7.0
19.44000, 11.0
19.46000, 9.0
19.48000, 7.0
19.50000, 10.0
19.52000, 6.0
19.54000, 8.0
19.56000, 8.0
19.58000, 4.0
19.60000, 8.0
19.62000, 12.0
19.64000, 7.0
19.66000, 10.0
19.68000, 8.0
19.70000, 5.0
19.72000, 7.0
19.74000, 6.0
19.76000, 6.0
19.78000, 7.0
19.80000, 8.0
19.82000, 6.0
19.84000, 10.0
19.86000, 6.0
19.88000, 5.0
19.90000, 8.0
19.92000, 6.0
19.94000, 5.0
19.96000, 7.0
19.98000, 7.0
20.00000, 5.0
20.02000, 6.0
20.04000, 5.0
20.06000, 8.0
20.08000, 9.0
20.10000, 6.0
20.12000, 6.0
20.14000, 3.0
20.16000, 10.0
20.18000, 6.0
20.20000, 4.0
20.22000, 5.0
20.24000, 6.0
20.26000, 7.0
20.27000, 6.0
#ENDOFDATA   :