File: data/2022-09-06_EDS-SEM-APREO/Mo_30kV.emsa
#FORMAT      : EMSA/MAS Spectral Data File
#VERSION     : 1.0
#TITLE       : Mo_30kV
#DATE        : 06-SEP-2022
#TIME        : 16:44
#OWNER       :
#NPOINTS     : 2048.0
#NCOLUMNS    : 1.0
#XUNITS      : keV
#YUNITS      : counts
#DATATYPE    : XY
#XPERCHAN    : 0.01
#OFFSET      : -0.2
#SIGNALTYPE  : EDS
#CHOFFSET    : 20.0
#LIVETIME    : 44.0
#REALTIME    : 68.4928
#BEAMKV      : 30.0
#MAGCAM      : 9788.0
#XTILTSTGE   : 0.0
#AZIMANGLE   : 0.0
#ELEVANGLE   : 35.0
#XPOSITION mm: -7.0542
#YPOSITION mm: -20.8305
#ZPOSITION mm: 9.9088
##OXINSTPT   : 5
##OXINSTSTROB: 36.90
##OXINSTNDET : 1
##OXINSTELEMS: 8,12,42
##OXINSTLABEL: 8, 0.522, O
##OXINSTLABEL: 12, 1.254, Mg
##OXINSTLABEL: 42, 17.480, Mo
##OXINSTLABEL: 42, 19.609, Mo
##OXINSTLABEL: 42, 19.965, Mo
##OXINSTLABEL: 42, 2.293, Mo
##OXINSTLABEL: 42, 2.395, Mo
##OXINSTLABEL: 42, 2.120, Mo
##OXINSTLABEL: 42, 2.831, Mo
##OXINSTLABEL: 42, 2.016, Mo
##OXINSTLABEL: 42, 0.193, Mo
#SPECTRUM    : Spectral Data Starts Here
-0.20000, 0.0
-0.18000, 0.0
-0.16000, 0.0
-0.14000, 0.0
-0.12000, 0.0
-0.10000, 0.0
-0.08000, 0.0
-0.06000, 1.0
-0.04000, 36.0
-0.02000, 399.0
0.00000, 1870.0
0.02000, 3089.0
0.04000, 1657.0
0.06000, 310.0
0.08000, 202.0
0.10000, 310.0
0.12000, 430.0
0.14000, 776.0
0.16000, 2005.0
0.18000, 3250.0
0.20000, 2839.0
0.22000, 1450.0
0.24000, 827.0
0.26000, 908.0
0.28000, 724.0
0.30000, 348.0
0.32000, 152.0
0.34000, 106.0
0.36000, 129.0
0.38000, 127.0
0.40000, 136.0
0.42000, 158.0
0.44000, 170.0
0.46000, 180.0
0.48000, 216.0
0.50000, 299.0
0.52000, 613.0
0.54000, 1052.0
0.56000, 1125.0
0.58000, 714.0
0.60000, 353.0
0.62000, 379.0
0.64000, 531.0
0.66000, 589.0
0.68000, 480.0
0.70000, 359.0
0.72000, 316.0
0.74000, 352.0
0.76000, 322.0
0.78000, 308.0
0.80000, 340.0
0.82000, 330.0
0.84000, 301.0
0.86000, 320.0
0.88000, 360.0
0.90000, 390.0
0.92000, 363.0
0.94000, 367.0
0.96000, 395.0
0.98000, 413.0
1.00000, 394.0
1.02000, 461.0
1.04000, 467.0
1.06000, 453.0
1.08000, 475.0
1.10000, 510.0
1.12000, 518.0
1.14000, 536.0
1.16000, 534.0
1.18000, 549.0
1.20000, 585.0
1.22000, 585.0
1.24000, 625.0
1.26000, 612.0
1.28000, 616.0
1.30000, 653.0
1.32000, 656.0
1.34000, 669.0
1.36000, 684.0
1.38000, 709.0
1.40000, 709.0
1.42000, 690.0
1.44000, 725.0
1.46000, 741.0
1.48000, 759.0
1.50000, 811.0
1.52000, 792.0
1.54000, 762.0
1.56000, 772.0
1.58000, 788.0
1.60000, 755.0
1.62000, 814.0
1.64000, 814.0
1.66000, 795.0
1.68000, 856.0
1.70000, 825.0
1.72000, 869.0
1.74000, 926.0
1.76000, 975.0
1.78000, 961.0
1.80000, 883.0
1.82000, 872.0
1.84000, 872.0
1.86000, 845.0
1.88000, 865.0
1.90000, 856.0
1.92000, 935.0
1.94000, 1006.0
1.96000, 1299.0
1.98000, 1742.0
2.00000, 2282.0
2.02000, 2472.0
2.04000, 2314.0
2.06000, 1930.0
2.08000, 1584.0
2.10000, 1533.0
2.12000, 1522.0
2.14000, 1635.0
2.16000, 1793.0
2.18000, 2100.0
2.20000, 3295.0
2.22000, 6629.0
2.24000, 14127.0
2.26000, 26503.0
2.28000, 39475.0
2.30000, 44638.0
2.32000, 38566.0
2.34000, 28180.0
2.36000, 21227.0
2.38000, 20037.0
2.40000, 20081.0
2.42000, 17316.0
2.44000, 13025.0
2.46000, 8877.0
2.48000, 6264.0
2.50000, 4500.0
2.52000, 3292.0
2.54000, 2243.0
2.56000, 1479.0
2.58000, 1089.0
2.60000, 828.0
2.62000, 718.0
2.64000, 641.0
2.66000, 556.0
2.68000, 469.0
2.70000, 371.0
2.72000, 360.0
2.74000, 328.0
2.76000, 369.0
2.78000, 394.0
2.80000, 455.0
2.82000, 503.0
2.84000, 496.0
2.86000, 484.0
2.88000, 431.0
2.90000, 362.0
2.92000, 326.0
2.94000, 303.0
2.96000, 335.0
2.98000, 318.0
3.00000, 300.0
3.02000, 302.0
3.04000, 302.0
3.06000, 302.0
3.08000, 314.0
3.10000, 337.0
3.12000, 324.0
3.14000, 309.0
3.16000, 301.0
3.18000, 327.0
3.20000, 357.0
3.22000, 323.0
3.24000, 329.0
3.26000, 334.0
3.28000, 336.0
3.30000, 362.0
3.32000, 361.0
3.34000, 324.0
3.36000, 354.0
3.38000, 369.0
3.40000, 334.0
3.42000, 331.0
3.44000, 379.0
3.46000, 354.0
3.48000, 350.0
3.50000, 352.0
3.52000, 372.0
3.54000, 363.0
3.56000, 404.0
3.58000, 364.0
3.60000, 334.0
3.62000, 377.0
3.64000, 365.0
3.66000, 380.0
3.68000, 386.0
3.70000, 366.0
3.72000, 373.0
3.74000, 395.0
3.76000, 381.0
3.78000, 393.0
3.80000, 382.0
3.82000, 401.0
3.84000, 359.0
3.86000, 376.0
3.88000, 384.0
3.90000, 391.0
3.92000, 370.0
3.94000, 390.0
3.96000, 402.0
3.98000, 402.0
4.00000, 374.0
4.02000, 380.0
4.04000, 392.0
4.06000, 394.0
4.08000, 400.0
4.10000, 394.0
4.12000, 418.0
4.14000, 427.0
4.16000, 424.0
4.18000, 407.0
4.20000, 414.0
4.22000, 419.0
4.24000, 399.0
4.26000, 371.0
4.28000, 405.0
4.30000, 410.0
4.32000, 414.0
4.34000, 412.0
4.36000, 412.0
4.38000, 429.0
4.40000, 415.0
4.42000, 413.0
4.44000, 408.0
4.46000, 446.0
4.48000, 409.0
4.50000, 438.0
4.52000, 467.0
4.54000, 520.0
4.56000, 536.0
4.58000, 568.0
4.60000, 570.0
4.62000, 574.0
4.64000, 596.0
4.66000, 550.0
4.68000, 548.0
4.70000, 518.0
4.72000, 520.0
4.74000, 507.0
4.76000, 502.0
4.78000, 489.0
4.80000, 456.0
4.82000, 458.0
4.84000, 443.0
4.86000, 434.0
4.88000, 422.0
4.90000, 411.0
4.92000, 413.0
4.94000, 442.0
4.96000, 406.0
4.98000, 401.0
5.00000, 390.0
5.02000, 407.0
5.04000, 394.0
5.06000, 388.0
5.08000, 390.0
5.10000, 402.0
5.12000, 401.0
5.14000, 385.0
5.16000, 404.0
5.18000, 397.0
5.20000, 400.0
5.22000, 386.0
5.24000, 398.0
5.26000, 397.0
5.28000, 425.0
5.30000, 381.0
5.32000, 361.0
5.34000, 371.0
5.36000, 397.0
5.38000, 386.0
5.40000, 414.0
5.42000, 396.0
5.44000, 373.0
5.46000, 383.0
5.48000, 389.0
5.50000, 386.0
5.52000, 362.0
5.54000, 399.0
5.56000, 406.0
5.58000, 409.0
5.60000, 384.0
5.62000, 376.0
5.64000, 397.0
5.66000, 377.0
5.68000, 415.0
5.70000, 392.0
5.72000, 405.0
5.74000, 362.0
5.76000, 357.0
5.78000, 388.0
5.80000, 378.0
5.82000, 380.0
5.84000, 375.0
5.86000, 367.0
5.88000, 396.0
5.90000, 400.0
5.92000, 336.0
5.94000, 374.0
5.96000, 368.0
5.98000, 401.0
6.00000, 357.0
6.02000, 368.0
6.04000, 376.0
6.06000, 355.0
6.08000, 377.0
6.10000, 380.0
6.12000, 391.0
6.14000, 366.0
6.16000, 362.0
6.18000, 389.0
6.20000, 382.0
6.22000, 390.0
6.24000, 355.0
6.26000, 354.0
6.28000, 361.0
6.30000, 358.0
6.32000, 406.0
6.34000, 347.0
6.36000, 347.0
6.38000, 379.0
6.40000, 378.0
6.42000, 388.0
6.44000, 355.0
6.46000, 352.0
6.48000, 349.0
6.50000, 362.0
6.52000, 361.0
6.54000, 361.0
6.56000, 384.0
6.58000, 356.0
6.60000, 361.0
6.62000, 362.0
6.64000, 355.0
6.66000, 345.0
6.68000, 352.0
6.70000, 325.0
6.72000, 341.0
6.74000, 341.0
6.76000, 327.0
6.78000, 337.0
6.80000, 341.0
6.82000, 339.0
6.84000, 367.0
6.86000, 353.0
6.88000, 345.0
6.90000, 356.0
6.92000, 368.0
6.94000, 354.0
6.96000, 329.0
6.98000, 364.0
7.00000, 334.0
7.02000, 350.0
7.04000, 342.0
7.06000, 352.0
7.08000, 346.0
7.10000, 326.0
7.12000, 343.0
7.14000, 331.0
7.16000, 336.0
7.18000, 324.0
7.20000, 321.0
7.22000, 309.0
7.24000, 304.0
7.26000, 330.0
7.28000, 316.0
7.30000, 320.0
7.32000, 293.0
7.34000, 328.0
7.36000, 316.0
7.38000, 313.0
7.40000, 330.0
7.42000, 314.0
7.44000, 320.0
7.46000, 332.0
7.48000, 331.0
7.50000, 340.0
7.52000, 332.0
7.54000, 332.0
7.56000, 310.0
7.58000, 319.0
7.60000, 306.0
7.62000, 306.0
7.64000, 302.0
7.66000, 301.0
7.68000, 314.0
7.70000, 298.0
7.72000, 301.0
7.74000, 299.0
7.76000, 291.0
7.78000, 308.0
7.80000, 289.0
7.82000, 307.0
7.84000, 306.0
7.86000, 293.0
7.88000, 304.0
7.90000, 286.0
7.92000, 302.0
7.94000, 308.0
7.96000, 291.0
7.98000, 301.0
8.00000, 298.0
8.02000, 278.0
8.04000, 295.0
8.06000, 285.0
8.08000, 293.0
8.10000, 267.0
8.12000, 296.0
8.14000, 307.0
8.16000, 285.0
8.18000, 289.0
8.20000, 304.0
8.22000, 308.0
8.24000, 287.0
8.26000, 265.0
8.28000, 295.0
8.30000, 276.0
8.32000, 277.0
8.34000, 282.0
8.36000, 303.0
8.38000, 281.0
8.40000, 279.0
8.42000, 262.0
8.44000, 280.0
8.46000, 284.0
8.48000, 303.0
8.50000, 238.0
8.52000, 298.0
8.54000, 267.0
8.56000, 291.0
8.58000, 258.0
8.60000, 277.0
8.62000, 265.0
8.64000, 280.0
8.66000, 281.0
8.68000, 272.0
8.70000, 279.0
8.72000, 298.0
8.74000, 274.0
8.76000, 284.0
8.78000, 274.0
8.80000, 258.0
8.82000, 279.0
8.84000, 262.0
8.86000, 265.0
8.88000, 266.0
8.90000, 278.0
8.92000, 280.0
8.94000, 266.0
8.96000, 258.0
8.98000, 239.0
9.00000, 242.0
9.02000, 286.0
9.04000, 274.0
9.06000, 283.0
9.08000, 242.0
9.10000, 264.0
9.12000, 256.0
9.14000, 259.0
9.16000, 265.0
9.18000, 268.0
9.20000, 254.0
9.22000, 266.0
9.24000, 236.0
9.26000, 263.0
9.28000, 236.0
9.30000, 257.0
9.32000, 241.0
9.34000, 262.0
9.36000, 245.0
9.38000, 245.0
9.40000, 259.0
9.42000, 255.0
9.44000, 263.0
9.46000, 249.0
9.48000, 252.0
9.50000, 241.0
9.52000, 241.0
9.54000, 251.0
9.56000, 251.0
9.58000, 233.0
9.60000, 239.0
9.62000, 226.0
9.64000, 241.0
9.66000, 224.0
9.68000, 274.0
9.70000, 239.0
9.72000, 238.0
9.74000, 232.0
9.76000, 228.0
9.78000, 233.0
9.80000, 257.0
9.82000, 239.0
9.84000, 234.0
9.86000, 214.0
9.88000, 227.0
9.90000, 241.0
9.92000, 239.0
9.94000, 233.0
9.96000, 258.0
9.98000, 225.0
10.00000, 227.0
10.02000, 256.0
10.04000, 251.0
10.06000, 237.0
10.08000, 201.0
10.10000, 213.0
10.12000, 229.0
10.14000, 216.0
10.16000, 221.0
10.18000, 217.0
10.20000, 244.0
10.22000, 206.0
10.24000, 223.0
10.26000, 214.0
10.28000, 212.0
10.30000, 222.0
10.32000, 237.0
10.34000, 208.0
10.36000, 217.0
10.38000, 223.0
10.40000, 206.0
10.42000, 185.0
10.44000, 217.0
10.46000, 203.0
10.48000, 215.0
10.50000, 223.0
10.52000, 215.0
10.54000, 218.0
10.56000, 203.0
10.58000, 217.0
10.60000, 208.0
10.62000, 205.0
10.64000, 203.0
10.66000, 215.0
10.68000, 219.0
10.70000, 213.0
10.72000, 208.0
10.74000, 211.0
10.76000, 185.0
10.78000, 209.0
10.80000, 220.0
10.82000, 201.0
10.84000, 200.0
10.86000, 205.0
10.88000, 201.0
10.90000, 203.0
10.92000, 209.0
10.94000, 184.0
10.96000, 188.0
10.98000, 209.0
11.00000, 198.0
11.02000, 178.0
11.04000, 196.0
11.06000, 199.0
11.08000, 203.0
11.10000, 179.0
11.12000, 190.0
11.14000, 205.0
11.16000, 187.0
11.18000, 196.0
11.20000, 207.0
11.22000, 188.0
11.24000, 184.0
11.26000, 175.0
11.28000, 175.0
11.30000, 191.0
11.32000, 187.0
11.34000, 172.0
11.36000, 170.0
11.38000, 191.0
11.40000, 180.0
11.42000, 177.0
11.44000, 182.0
11.46000, 187.0
11.48000, 184.0
11.50000, 174.0
11.52000, 181.0
11.54000, 187.0
11.56000, 169.0
11.58000, 180.0
11.60000, 175.0
11.62000, 178.0
11.64000, 176.0
11.66000, 168.0
11.68000, 187.0
11.70000, 180.0
11.72000, 179.0
11.74000, 171.0
11.76000, 173.0
11.78000, 166.0
11.80000, 171.0
11.82000, 162.0
11.84000, 170.0
11.86000, 171.0
11.88000, 168.0
11.90000, 165.0
11.92000, 185.0
11.94000, 175.0
11.96000, 161.0
11.98000, 175.0
12.00000, 167.0
12.02000, 145.0
12.04000, 166.0
12.06000, 168.0
12.08000, 157.0
12.10000, 156.0
12.12000, 161.0
12.14000, 173.0
12.16000, 168.0
12.18000, 167.0
12.20000, 158.0
12.22000, 150.0
12.24000, 162.0
12.26000, 153.0
12.28000, 152.0
12.30000, 144.0
12.32000, 164.0
12.34000, 177.0
12.36000, 179.0
12.38000, 134.0
12.40000, 171.0
12.42000, 160.0
12.44000, 166.0
12.46000, 146.0
12.48000, 137.0
12.50000, 140.0
12.52000, 136.0
12.54000, 134.0
12.56000, 153.0
12.58000, 156.0
12.60000, 171.0
12.62000, 139.0
12.64000, 157.0
12.66000, 152.0
12.68000, 140.0
12.70000, 152.0
12.72000, 157.0
12.74000, 139.0
12.76000, 146.0
12.78000, 130.0
12.80000, 153.0
12.82000, 150.0
12.84000, 144.0
12.86000, 138.0
12.88000, 146.0
12.90000, 141.0
12.92000, 143.0
12.94000, 134.0
12.96000, 146.0
12.98000, 135.0
13.00000, 140.0
13.02000, 138.0
13.04000, 135.0
13.06000, 143.0
13.08000, 131.0
13.10000, 131.0
13.12000, 123.0
13.14000, 148.0
13.16000, 140.0
13.18000, 137.0
13.20000, 107.0
13.22000, 135.0
13.24000, 125.0
13.26000, 123.0
13.28000, 134.0
13.30000, 130.0
13.32000, 129.0
13.34000, 142.0
13.36000, 137.0
13.38000, 134.0
13.40000, 140.0
13.42000, 127.0
13.44000, 131.0
13.46000, 125.0
13.48000, 124.0
13.50000, 120.0
13.52000, 122.0
13.54000, 123.0
13.56000, 138.0
13.58000, 115.0
13.60000, 119.0
13.62000, 118.0
13.64000, 110.0
13.66000, 120.0
13.68000, 120.0
13.70000, 132.0
13.72000, 124.0
13.74000, 113.0
13.76000, 116.0
13.78000, 118.0
13.80000, 121.0
13.82000, 108.0
13.84000, 116.0
13.86000, 117.0
13.88000, 106.0
13.90000, 105.0
13.92000, 123.0
13.94000, 119.0
13.96000, 111.0
13.98000, 97.0
14.00000, 115.0
14.02000, 112.0
14.04000, 113.0
14.06000, 115.0
14.08000, 105.0
14.10000, 109.0
14.12000, 105.0
14.14000, 103.0
14.16000, 116.0
14.18000, 107.0
14.20000, 117.0
14.22000, 97.0
14.24000, 109.0
14.26000, 112.0
14.28000, 99.0
14.30000, 99.0
14.32000, 107.0
14.34000, 105.0
14.36000, 110.0
14.38000, 98.0
14.40000, 90.0
14.42000, 101.0
14.44000, 107.0
14.46000, 104.0
14.48000, 100.0
14.50000, 90.0
14.52000, 104.0
14.54000, 102.0
14.56000, 102.0
14.58000, 108.0
14.60000, 103.0
14.62000, 100.0
14.64000, 96.0
14.66000, 94.0
14.68000, 101.0
14.70000, 99.0
14.72000, 89.0
14.74000, 92.0
14.76000, 95.0
14.78000, 88.0
14.80000, 86.0
14.82000, 107.0
14.84000, 104.0
14.86000, 85.0
14.88000, 91.0
14.90000, 87.0
14.92000, 75.0
14.94000, 91.0
14.96000, 84.0
14.98000, 98.0
15.00000, 85.0
15.02000, 74.0
15.04000, 89.0
15.06000, 96.0
15.08000, 88.0
15.10000, 83.0
15.12000, 102.0
15.14000, 93.0
15.16000, 75.0
15.18000, 84.0
15.20000, 91.0
15.22000, 82.0
15.24000, 92.0
15.26000, 86.0
15.28000, 87.0
15.30000, 84.0
15.32000, 82.0
15.34000, 85.0
15.36000, 87.0
15.38000, 87.0
15.40000, 94.0
15.42000, 91.0
15.44000, 87.0
15.46000, 81.0
15.48000, 85.0
15.50000, 82.0
15.52000, 80.0
15.54000, 69.0
15.56000, 76.0
15.58000, 75.0
15.60000, 83.0
15.62000, 82.0
15.64000, 82.0
15.66000, 80.0
15.68000, 87.0
15.70000, 71.0
15.72000, 82.0
15.74000, 78.0
15.76000, 72.0
15.78000, 76.0
15.80000, 76.0
15.82000, 72.0
15.84000, 70.0
15.86000, 74.0
15.88000, 77.0
15.90000, 73.0
15.92000, 78.0
15.94000, 79.0
15.96000, 75.0
15.98000, 78.0
16.00000, 73.0
16.02000, 81.0
16.04000, 72.0
16.06000, 65.0
16.08000, 67.0
16.10000, 77.0
16.12000, 80.0
16.14000, 68.0
16.16000, 74.0
16.18000, 67.0
16.20000, 81.0
16.22000, 67.0
16.24000, 67.0
16.26000, 62.0
16.28000, 65.0
16.30000, 68.0
16.32000, 58.0
16.34000, 60.0
16.36000, 62.0
16.38000, 62.0
16.40000, 60.0
16.42000, 74.0
16.44000, 76.0
16.46000, 64.0
16.48000, 71.0
16.50000, 66.0
16.52000, 56.0
16.54000, 61.0
16.56000, 66.0
16.58000, 54.0
16.60000, 77.0
16.62000, 78.0
16.64000, 65.0
16.66000, 59.0
16.68000, 63.0
16.70000, 68.0
16.72000, 61.0
16.74000, 67.0
16.76000, 60.0
16.78000, 83.0
16.80000, 63.0
16.82000, 57.0
16.84000, 66.0
16.86000, 68.0
16.88000, 59.0
16.90000, 74.0
16.92000, 64.0
16.94000, 64.0
16.96000, 65.0
16.98000, 54.0
17.00000, 65.0
17.02000, 54.0
17.04000, 61.0
17.06000, 58.0
17.08000, 60.0
17.10000, 77.0
17.12000, 68.0
17.14000, 66.0
17.16000, 98.0
17.18000, 111.0
17.20000, 143.0
17.22000, 196.0
17.24000, 235.0
17.26000, 301.0
17.28000, 381.0
17.30000, 465.0
17.32000, 556.0
17.34000, 647.0
17.36000, 737.0
17.38000, 755.0
17.40000, 861.0
17.42000, 852.0
17.44000, 848.0
17.46000, 809.0
17.48000, 754.0
17.50000, 669.0
17.52000, 595.0
17.54000, 489.0
17.56000, 380.0
17.58000, 282.0
17.60000, 224.0
17.62000, 147.0
17.64000, 127.0
17.66000, 89.0
17.68000, 75.0
17.70000, 67.0
17.72000, 63.0
17.74000, 50.0
17.76000, 54.0
17.78000, 47.0
17.80000, 49.0
17.82000, 50.0
17.84000, 45.0
17.86000, 48.0
17.88000, 51.0
17.90000, 39.0
17.92000, 57.0
17.94000, 43.0
17.96000, 57.0
17.98000, 40.0
18.00000, 50.0
18.02000, 43.0
18.04000, 47.0
18.06000, 41.0
18.08000, 41.0
18.10000, 42.0
18.12000, 36.0
18.14000, 49.0
18.16000, 48.0
18.18000, 38.0
18.20000, 50.0
18.22000, 37.0
18.24000, 43.0
18.26000, 44.0
18.28000, 46.0
18.30000, 37.0
18.32000, 48.0
18.34000, 38.0
18.36000, 49.0
18.38000, 40.0
18.40000, 33.0
18.42000, 42.0
18.44000, 44.0
18.46000, 43.0
18.48000, 42.0
18.50000, 39.0
18.52000, 41.0
18.54000, 39.0
18.56000, 31.0
18.58000, 43.0
18.60000, 32.0
18.62000, 37.0
18.64000, 28.0
18.66000, 43.0
18.68000, 34.0
18.70000, 33.0
18.72000, 40.0
18.74000, 39.0
18.76000, 42.0
18.78000, 43.0
18.80000, 40.0
18.82000, 36.0
18.84000, 38.0
18.86000, 41.0
18.88000, 35.0
18.90000, 35.0
18.92000, 42.0
18.94000, 34.0
18.96000, 42.0
18.98000, 41.0
19.00000, 38.0
19.02000, 33.0
19.04000, 42.0
19.06000, 42.0
19.08000, 31.0
19.10000, 35.0
19.12000, 42.0
19.14000, 35.0
19.16000, 38.0
19.18000, 37.0
19.20000, 40.0
19.22000, 33.0
19.24000, 41.0
19.26000, 34.0
19.28000, 30.0
19.30000, 35.0
19.32000, 41.0
19.34000, 44.0
19.36000, 50.0
19.38000, 51.0
19.40000, 52.0
19.42000, 61.0
19.44000, 81.0
19.46000, 85.0
19.48000, 118.0
19.50000, 126.0
19.52000, 128.0
19.54000, 131.0
19.56000, 158.0
19.58000, 160.0
19.60000, 142.0
19.62000, 150.0
19.64000, 136.0
19.66000, 129.0
19.68000, 110.0
19.70000, 99.0
19.72000, 82.0
19.74000, 63.0
19.76000, 65.0
19.78000, 46.0
19.80000, 46.0
19.82000, 43.0
19.84000, 45.0
19.86000, 56.0
19.88000, 43.0
19.90000, 48.0
19.92000, 49.0
19.94000, 39.0
19.96000, 52.0
19.98000, 42.0
20.00000, 49.0
20.02000, 39.0
20.04000, 47.0
20.06000, 24.0
20.08000, 23.0
20.10000, 27.0
20.12000, 22.0
20.14000, 27.0
20.16000, 26.0
20.18000, 24.0
20.20000, 20.0
20.22000, 35.0
20.24000, 24.0
20.26000, 29.0
20.27000, 28.0
#ENDOFDATA   :