File: data/2022-09-06_EDS-SEM-APREO/NW_10kV.emsa
#FORMAT      : EMSA/MAS Spectral Data File
#VERSION     : 1.0
#TITLE       : NW_10kV
#DATE        : 06-SEP-2022
#TIME        : 16:05
#OWNER       :
#NPOINTS     : 2048.0
#NCOLUMNS    : 1.0
#XUNITS      : keV
#YUNITS      : counts
#DATATYPE    : XY
#XPERCHAN    : 0.01
#OFFSET      : -0.2
#SIGNALTYPE  : EDS
#CHOFFSET    : 20.0
#LIVETIME    : 120.0
#REALTIME    : 147.437
#BEAMKV      : 10.0
#MAGCAM      : 68514.0
#XTILTSTGE   : 0.0
#AZIMANGLE   : 0.0
#ELEVANGLE   : 35.0
#XPOSITION mm: -4.8510
#YPOSITION mm: -16.6868
#ZPOSITION mm: 9.9088
##OXINSTPT   : 5
##OXINSTSTROB: 36.25
##OXINSTNDET : 1
##OXINSTELEMS: 25,50,8,12
##OXINSTLABEL: 25, 5.899, Mn
##OXINSTLABEL: 25, 6.490, Mn
##OXINSTLABEL: 25, 0.636, Mn
##OXINSTLABEL: 25, 0.556, Mn
##OXINSTLABEL: 50, 3.444, Sn
##OXINSTLABEL: 50, 3.666, Sn
##OXINSTLABEL: 50, 3.905, Sn
##OXINSTLABEL: 50, 3.272, Sn
##OXINSTLABEL: 50, 4.131, Sn
##OXINSTLABEL: 50, 4.377, Sn
##OXINSTLABEL: 50, 3.045, Sn
##OXINSTLABEL: 50, 0.397, Sn
##OXINSTLABEL: 8, 0.522, O
##OXINSTLABEL: 12, 1.254, Mg
#SPECTRUM    : Spectral Data Starts Here
-0.20000, 0.0
-0.18000, 0.0
-0.16000, 0.0
-0.14000, 0.0
-0.12000, 0.0
-0.10000, 0.0
-0.08000, 0.0
-0.06000, 1.0
-0.04000, 76.0
-0.02000, 1076.0
0.00000, 4931.0
0.02000, 8600.0
0.04000, 4985.0
0.06000, 964.0
0.08000, 560.0
0.10000, 877.0
0.12000, 1031.0
0.14000, 1166.0
0.16000, 1491.0
0.18000, 1671.0
0.20000, 1943.0
0.22000, 3092.0
0.24000, 7783.0
0.26000, 14636.0
0.28000, 13824.0
0.30000, 6047.0
0.32000, 1779.0
0.34000, 1273.0
0.36000, 1594.0
0.38000, 1935.0
0.40000, 2143.0
0.42000, 2156.0
0.44000, 1999.0
0.46000, 2264.0
0.48000, 2890.0
0.50000, 4465.0
0.52000, 5575.0
0.54000, 4468.0
0.56000, 2680.0
0.58000, 1940.0
0.60000, 1806.0
0.62000, 1855.0
0.64000, 2035.0
0.66000, 2171.0
0.68000, 2163.0
0.70000, 2134.0
0.72000, 2086.0
0.74000, 2144.0
0.76000, 2085.0
0.78000, 2186.0
0.80000, 2416.0
0.82000, 2816.0
0.84000, 3172.0
0.86000, 3288.0
0.88000, 3240.0
0.90000, 4135.0
0.92000, 5979.0
0.94000, 7288.0
0.96000, 6975.0
0.98000, 5599.0
1.00000, 4063.0
1.02000, 3638.0
1.04000, 6107.0
1.06000, 15744.0
1.08000, 33212.0
1.10000, 48726.0
1.12000, 46824.0
1.14000, 31166.0
1.16000, 15128.0
1.18000, 6647.0
1.20000, 3969.0
1.22000, 5166.0
1.24000, 11762.0
1.26000, 25306.0
1.28000, 38197.0
1.30000, 40442.0
1.32000, 30979.0
1.34000, 18181.0
1.36000, 8649.0
1.38000, 4226.0
1.40000, 2497.0
1.42000, 1835.0
1.44000, 1401.0
1.46000, 1245.0
1.48000, 1225.0
1.50000, 1238.0
1.52000, 1224.0
1.54000, 1227.0
1.56000, 1166.0
1.58000, 1154.0
1.60000, 1084.0
1.62000, 1052.0
1.64000, 1073.0
1.66000, 1059.0
1.68000, 1087.0
1.70000, 1148.0
1.72000, 1231.0
1.74000, 1263.0
1.76000, 1259.0
1.78000, 1182.0
1.80000, 1082.0
1.82000, 1025.0
1.84000, 953.0
1.86000, 971.0
1.88000, 908.0
1.90000, 891.0
1.92000, 921.0
1.94000, 891.0
1.96000, 888.0
1.98000, 964.0
2.00000, 1031.0
2.02000, 1032.0
2.04000, 1035.0
2.06000, 924.0
2.08000, 900.0
2.10000, 861.0
2.12000, 830.0
2.14000, 863.0
2.16000, 879.0
2.18000, 870.0
2.20000, 840.0
2.22000, 909.0
2.24000, 970.0
2.26000, 1094.0
2.28000, 1168.0
2.30000, 1198.0
2.32000, 1167.0
2.34000, 1081.0
2.36000, 1007.0
2.38000, 1023.0
2.40000, 981.0
2.42000, 970.0
2.44000, 898.0
2.46000, 819.0
2.48000, 773.0
2.50000, 761.0
2.52000, 750.0
2.54000, 728.0
2.56000, 733.0
2.58000, 761.0
2.60000, 714.0
2.62000, 711.0
2.64000, 731.0
2.66000, 673.0
2.68000, 648.0
2.70000, 622.0
2.72000, 620.0
2.74000, 667.0
2.76000, 634.0
2.78000, 626.0
2.80000, 617.0
2.82000, 618.0
2.84000, 620.0
2.86000, 645.0
2.88000, 592.0
2.90000, 612.0
2.92000, 590.0
2.94000, 587.0
2.96000, 610.0
2.98000, 573.0
3.00000, 603.0
3.02000, 595.0
3.04000, 567.0
3.06000, 569.0
3.08000, 550.0
3.10000, 557.0
3.12000, 545.0
3.14000, 568.0
3.16000, 558.0
3.18000, 556.0
3.20000, 552.0
3.22000, 519.0
3.24000, 527.0
3.26000, 504.0
3.28000, 540.0
3.30000, 547.0
3.32000, 537.0
3.34000, 481.0
3.36000, 487.0
3.38000, 512.0
3.40000, 535.0
3.42000, 533.0
3.44000, 519.0
3.46000, 504.0
3.48000, 533.0
3.50000, 500.0
3.52000, 521.0
3.54000, 656.0
3.56000, 803.0
3.58000, 903.0
3.60000, 1039.0
3.62000, 1080.0
3.64000, 928.0
3.66000, 760.0
3.68000, 605.0
3.70000, 517.0
3.72000, 492.0
3.74000, 489.0
3.76000, 487.0
3.78000, 515.0
3.80000, 595.0
3.82000, 607.0
3.84000, 692.0
3.86000, 667.0
3.88000, 671.0
3.90000, 585.0
3.92000, 540.0
3.94000, 505.0
3.96000, 496.0
3.98000, 486.0
4.00000, 441.0
4.02000, 421.0
4.04000, 434.0
4.06000, 446.0
4.08000, 437.0
4.10000, 465.0
4.12000, 451.0
4.14000, 446.0
4.16000, 431.0
4.18000, 434.0
4.20000, 387.0
4.22000, 379.0
4.24000, 394.0
4.26000, 381.0
4.28000, 398.0
4.30000, 386.0
4.32000, 374.0
4.34000, 394.0
4.36000, 402.0
4.38000, 382.0
4.40000, 376.0
4.42000, 395.0
4.44000, 366.0
4.46000, 347.0
4.48000, 370.0
4.50000, 348.0
4.52000, 360.0
4.54000, 370.0
4.56000, 369.0
4.58000, 343.0
4.60000, 357.0
4.62000, 378.0
4.64000, 323.0
4.66000, 344.0
4.68000, 347.0
4.70000, 342.0
4.72000, 344.0
4.74000, 349.0
4.76000, 327.0
4.78000, 330.0
4.80000, 317.0
4.82000, 299.0
4.84000, 313.0
4.86000, 331.0
4.88000, 286.0
4.90000, 326.0
4.92000, 335.0
4.94000, 327.0
4.96000, 307.0
4.98000, 317.0
5.00000, 311.0
5.02000, 297.0
5.04000, 306.0
5.06000, 302.0
5.08000, 304.0
5.10000, 283.0
5.12000, 293.0
5.14000, 282.0
5.16000, 304.0
5.18000, 301.0
5.20000, 313.0
5.22000, 305.0
5.24000, 270.0
5.26000, 290.0
5.28000, 278.0
5.30000, 285.0
5.32000, 262.0
5.34000, 276.0
5.36000, 295.0
5.38000, 299.0
5.40000, 274.0
5.42000, 286.0
5.44000, 285.0
5.46000, 290.0
5.48000, 235.0
5.50000, 306.0
5.52000, 283.0
5.54000, 251.0
5.56000, 249.0
5.58000, 270.0
5.60000, 274.0
5.62000, 266.0
5.64000, 282.0
5.66000, 272.0
5.68000, 267.0
5.70000, 266.0
5.72000, 264.0
5.74000, 261.0
5.76000, 269.0
5.78000, 265.0
5.80000, 242.0
5.82000, 261.0
5.84000, 265.0
5.86000, 246.0
5.88000, 249.0
5.90000, 251.0
5.92000, 252.0
5.94000, 247.0
5.96000, 260.0
5.98000, 237.0
6.00000, 235.0
6.02000, 235.0
6.04000, 247.0
6.06000, 240.0
6.08000, 250.0
6.10000, 253.0
6.12000, 229.0
6.14000, 223.0
6.16000, 215.0
6.18000, 231.0
6.20000, 245.0
6.22000, 215.0
6.24000, 221.0
6.26000, 230.0
6.28000, 230.0
6.30000, 240.0
6.32000, 256.0
6.34000, 242.0
6.36000, 230.0
6.38000, 223.0
6.40000, 223.0
6.42000, 210.0
6.44000, 219.0
6.46000, 216.0
6.48000, 234.0
6.50000, 242.0
6.52000, 217.0
6.54000, 192.0
6.56000, 213.0
6.58000, 217.0
6.60000, 206.0
6.62000, 216.0
6.64000, 204.0
6.66000, 208.0
6.68000, 203.0
6.70000, 204.0
6.72000, 209.0
6.74000, 205.0
6.76000, 217.0
6.78000, 229.0
6.80000, 203.0
6.82000, 182.0
6.84000, 181.0
6.86000, 197.0
6.88000, 223.0
6.90000, 189.0
6.92000, 205.0
6.94000, 186.0
6.96000, 194.0
6.98000, 216.0
7.00000, 187.0
7.02000, 197.0
7.04000, 201.0
7.06000, 181.0
7.08000, 194.0
7.10000, 195.0
7.12000, 179.0
7.14000, 186.0
7.16000, 188.0
7.18000, 180.0
7.20000, 190.0
7.22000, 173.0
7.24000, 184.0
7.26000, 185.0
7.28000, 175.0
7.30000, 177.0
7.32000, 189.0
7.34000, 166.0
7.36000, 171.0
7.38000, 178.0
7.40000, 186.0
7.42000, 192.0
7.44000, 179.0
7.46000, 194.0
7.48000, 190.0
7.50000, 194.0
7.52000, 197.0
7.54000, 174.0
7.56000, 179.0
7.58000, 184.0
7.60000, 162.0
7.62000, 172.0
7.64000, 182.0
7.66000, 166.0
7.68000, 167.0
7.70000, 177.0
7.72000, 179.0
7.74000, 176.0
7.76000, 168.0
7.78000, 178.0
7.80000, 165.0
7.82000, 182.0
7.84000, 156.0
7.86000, 159.0
7.88000, 176.0
7.90000, 171.0
7.92000, 151.0
7.94000, 177.0
7.96000, 167.0
7.98000, 191.0
8.00000, 181.0
8.02000, 192.0
8.04000, 194.0
8.06000, 189.0
8.08000, 193.0
8.10000, 168.0
8.12000, 158.0
8.14000, 170.0
8.16000, 154.0
8.18000, 155.0
8.20000, 163.0
8.22000, 150.0
8.24000, 143.0
8.26000, 151.0
8.28000, 151.0
8.30000, 148.0
8.32000, 134.0
8.34000, 136.0
8.36000, 157.0
8.38000, 132.0
8.40000, 141.0
8.42000, 140.0
8.44000, 142.0
8.46000, 148.0
8.48000, 130.0
8.50000, 134.0
8.52000, 139.0
8.54000, 137.0
8.56000, 135.0
8.58000, 135.0
8.60000, 127.0
8.62000, 134.0
8.64000, 135.0
8.66000, 149.0
8.68000, 137.0
8.70000, 126.0
8.72000, 136.0
8.74000, 128.0
8.76000, 134.0
8.78000, 122.0
8.80000, 126.0
8.82000, 130.0
8.84000, 141.0
8.86000, 130.0
8.88000, 135.0
8.90000, 140.0
8.92000, 134.0
8.94000, 132.0
8.96000, 115.0
8.98000, 126.0
9.00000, 136.0
9.02000, 118.0
9.04000, 105.0
9.06000, 104.0
9.08000, 108.0
9.10000, 103.0
9.12000, 108.0
9.14000, 120.0
9.16000, 98.0
9.18000, 104.0
9.20000, 129.0
9.22000, 115.0
9.24000, 117.0
9.26000, 120.0
9.28000, 106.0
9.30000, 89.0
9.32000, 91.0
9.34000, 101.0
9.36000, 94.0
9.38000, 93.0
9.40000, 88.0
9.42000, 93.0
9.44000, 79.0
9.46000, 90.0
9.48000, 90.0
9.50000, 89.0
9.52000, 90.0
9.54000, 88.0
9.56000, 81.0
9.58000, 81.0
9.60000, 76.0
9.62000, 75.0
9.64000, 73.0
9.66000, 69.0
9.68000, 67.0
9.70000, 77.0
9.72000, 75.0
9.74000, 55.0
9.76000, 59.0
9.78000, 67.0
9.80000, 54.0
9.82000, 45.0
9.84000, 46.0
9.86000, 43.0
9.88000, 39.0
9.90000, 31.0
9.92000, 29.0
9.94000, 27.0
9.96000, 19.0
9.98000, 16.0
10.00000, 12.0
10.02000, 8.0
10.04000, 3.0
10.06000, 4.0
10.08000, 3.0
10.10000, 4.0
10.12000, 1.0
10.14000, 3.0
10.16000, 2.0
10.18000, 1.0
10.20000, 1.0
10.22000, 3.0
10.24000, 1.0
10.26000, 0.0
10.28000, 2.0
10.30000, 1.0
10.32000, 0.0
10.34000, 2.0
10.36000, 3.0
10.38000, 1.0
10.40000, 1.0
10.42000, 1.0
10.44000, 1.0
10.46000, 1.0
10.48000, 0.0
10.50000, 2.0
10.52000, 0.0
10.54000, 2.0
10.56000, 1.0
10.58000, 0.0
10.60000, 0.0
10.62000, 1.0
10.64000, 0.0
10.66000, 0.0
10.68000, 2.0
10.70000, 3.0
10.72000, 0.0
10.74000, 1.0
10.76000, 2.0
10.78000, 3.0
10.80000, 1.0
10.82000, 0.0
10.84000, 0.0
10.86000, 2.0
10.88000, 0.0
10.90000, 1.0
10.92000, 1.0
10.94000, 0.0
10.96000, 1.0
10.98000, 1.0
11.00000, 1.0
11.02000, 1.0
11.04000, 1.0
11.06000, 1.0
11.08000, 0.0
11.10000, 0.0
11.12000, 1.0
11.14000, 0.0
11.16000, 0.0
11.18000, 1.0
11.20000, 0.0
11.22000, 0.0
11.24000, 0.0
11.26000, 0.0
11.28000, 1.0
11.30000, 0.0
11.32000, 0.0
11.34000, 0.0
11.36000, 0.0
11.38000, 0.0
11.40000, 0.0
11.42000, 0.0
11.44000, 0.0
11.46000, 0.0
11.48000, 0.0
11.50000, 1.0
11.52000, 0.0
11.54000, 0.0
11.56000, 0.0
11.58000, 0.0
11.60000, 0.0
11.62000, 1.0
11.64000, 0.0
11.66000, 0.0
11.68000, 1.0
11.70000, 0.0
11.72000, 0.0
11.74000, 0.0
11.76000, 0.0
11.78000, 1.0
11.80000, 0.0
11.82000, 0.0
11.84000, 0.0
11.86000, 0.0
11.88000, 1.0
11.90000, 1.0
11.92000, 0.0
11.94000, 0.0
11.96000, 0.0
11.98000, 1.0
12.00000, 0.0
12.02000, 0.0
12.04000, 0.0
12.06000, 0.0
12.08000, 0.0
12.10000, 2.0
12.12000, 0.0
12.14000, 0.0
12.16000, 0.0
12.18000, 1.0
12.20000, 0.0
12.22000, 0.0
12.24000, 0.0
12.26000, 0.0
12.28000, 0.0
12.30000, 1.0
12.32000, 0.0
12.34000, 0.0
12.36000, 0.0
12.38000, 0.0
12.40000, 1.0
12.42000, 0.0
12.44000, 0.0
12.46000, 0.0
12.48000, 0.0
12.50000, 1.0
12.52000, 0.0
12.54000, 0.0
12.56000, 0.0
12.58000, 0.0
12.60000, 0.0
12.62000, 0.0
12.64000, 1.0
12.66000, 0.0
12.68000, 0.0
12.70000, 1.0
12.72000, 0.0
12.74000, 0.0
12.76000, 1.0
12.78000, 0.0
12.80000, 0.0
12.82000, 0.0
12.84000, 0.0
12.86000, 0.0
12.88000, 0.0
12.90000, 0.0
12.92000, 0.0
12.94000, 1.0
12.96000, 0.0
12.98000, 0.0
13.00000, 0.0
13.02000, 0.0
13.04000, 0.0
13.06000, 1.0
13.08000, 1.0
13.10000, 0.0
13.12000, 0.0
13.14000, 0.0
13.16000, 0.0
13.18000, 1.0
13.20000, 0.0
13.22000, 0.0
13.24000, 0.0
13.26000, 0.0
13.28000, 0.0
13.30000, 1.0
13.32000, 0.0
13.34000, 1.0
13.36000, 0.0
13.38000, 0.0
13.40000, 0.0
13.42000, 0.0
13.44000, 1.0
13.46000, 0.0
13.48000, 0.0
13.50000, 0.0
13.52000, 0.0
13.54000, 0.0
13.56000, 0.0
13.58000, 0.0
13.60000, 0.0
13.62000, 1.0
13.64000, 0.0
13.66000, 0.0
13.68000, 0.0
13.70000, 0.0
13.72000, 0.0
13.74000, 0.0
13.76000, 0.0
13.78000, 0.0
13.80000, 0.0
13.82000, 0.0
13.84000, 0.0
13.86000, 0.0
13.88000, 0.0
13.90000, 0.0
13.92000, 0.0
13.94000, 1.0
13.96000, 0.0
13.98000, 1.0
14.00000, 0.0
14.02000, 1.0
14.04000, 0.0
14.06000, 1.0
14.08000, 0.0
14.10000, 0.0
14.12000, 0.0
14.14000, 0.0
14.16000, 0.0
14.18000, 0.0
14.20000, 0.0
14.22000, 0.0
14.24000, 0.0
14.26000, 0.0
14.28000, 0.0
14.30000, 0.0
14.32000, 0.0
14.34000, 0.0
14.36000, 0.0
14.38000, 0.0
14.40000, 0.0
14.42000, 0.0
14.44000, 0.0
14.46000, 0.0
14.48000, 0.0
14.50000, 0.0
14.52000, 0.0
14.54000, 0.0
14.56000, 0.0
14.58000, 0.0
14.60000, 0.0
14.62000, 0.0
14.64000, 0.0
14.66000, 1.0
14.68000, 0.0
14.70000, 0.0
14.72000, 0.0
14.74000, 0.0
14.76000, 0.0
14.78000, 0.0
14.80000, 0.0
14.82000, 0.0
14.84000, 0.0
14.86000, 0.0
14.88000, 0.0
14.90000, 0.0
14.92000, 2.0
14.94000, 1.0
14.96000, 0.0
14.98000, 0.0
15.00000, 0.0
15.02000, 0.0
15.04000, 0.0
15.06000, 0.0
15.08000, 0.0
15.10000, 0.0
15.12000, 0.0
15.14000, 0.0
15.16000, 0.0
15.18000, 0.0
15.20000, 0.0
15.22000, 0.0
15.24000, 0.0
15.26000, 0.0
15.28000, 0.0
15.30000, 0.0
15.32000, 0.0
15.34000, 0.0
15.36000, 0.0
15.38000, 0.0
15.40000, 0.0
15.42000, 0.0
15.44000, 0.0
15.46000, 0.0
15.48000, 0.0
15.50000, 0.0
15.52000, 0.0
15.54000, 0.0
15.56000, 0.0
15.58000, 0.0
15.60000, 0.0
15.62000, 0.0
15.64000, 0.0
15.66000, 0.0
15.68000, 0.0
15.70000, 0.0
15.72000, 0.0
15.74000, 0.0
15.76000, 0.0
15.78000, 0.0
15.80000, 0.0
15.82000, 0.0
15.84000, 0.0
15.86000, 0.0
15.88000, 0.0
15.90000, 0.0
15.92000, 0.0
15.94000, 0.0
15.96000, 0.0
15.98000, 0.0
16.00000, 0.0
16.02000, 0.0
16.04000, 0.0
16.06000, 0.0
16.08000, 0.0
16.10000, 0.0
16.12000, 0.0
16.14000, 0.0
16.16000, 0.0
16.18000, 0.0
16.20000, 0.0
16.22000, 0.0
16.24000, 0.0
16.26000, 0.0
16.28000, 0.0
16.30000, 0.0
16.32000, 0.0
16.34000, 0.0
16.36000, 0.0
16.38000, 0.0
16.40000, 0.0
16.42000, 0.0
16.44000, 0.0
16.46000, 0.0
16.48000, 0.0
16.50000, 0.0
16.52000, 0.0
16.54000, 1.0
16.56000, 0.0
16.58000, 0.0
16.60000, 0.0
16.62000, 0.0
16.64000, 0.0
16.66000, 0.0
16.68000, 0.0
16.70000, 0.0
16.72000, 0.0
16.74000, 0.0
16.76000, 0.0
16.78000, 0.0
16.80000, 0.0
16.82000, 0.0
16.84000, 0.0
16.86000, 0.0
16.88000, 0.0
16.90000, 0.0
16.92000, 0.0
16.94000, 1.0
16.96000, 0.0
16.98000, 0.0
17.00000, 0.0
17.02000, 0.0
17.04000, 0.0
17.06000, 0.0
17.08000, 0.0
17.10000, 0.0
17.12000, 0.0
17.14000, 0.0
17.16000, 0.0
17.18000, 0.0
17.20000, 0.0
17.22000, 0.0
17.24000, 0.0
17.26000, 0.0
17.28000, 0.0
17.30000, 0.0
17.32000, 0.0
17.34000, 0.0
17.36000, 0.0
17.38000, 0.0
17.40000, 0.0
17.42000, 0.0
17.44000, 0.0
17.46000, 0.0
17.48000, 0.0
17.50000, 0.0
17.52000, 0.0
17.54000, 0.0
17.56000, 0.0
17.58000, 0.0
17.60000, 0.0
17.62000, 0.0
17.64000, 0.0
17.66000, 0.0
17.68000, 0.0
17.70000, 0.0
17.72000, 0.0
17.74000, 0.0
17.76000, 0.0
17.78000, 0.0
17.80000, 0.0
17.82000, 0.0
17.84000, 0.0
17.86000, 0.0
17.88000, 0.0
17.90000, 0.0
17.92000, 0.0
17.94000, 0.0
17.96000, 0.0
17.98000, 0.0
18.00000, 0.0
18.02000, 0.0
18.04000, 0.0
18.06000, 0.0
18.08000, 0.0
18.10000, 0.0
18.12000, 0.0
18.14000, 0.0
18.16000, 0.0
18.18000, 0.0
18.20000, 0.0
18.22000, 0.0
18.24000, 0.0
18.26000, 0.0
18.28000, 0.0
18.30000, 0.0
18.32000, 0.0
18.34000, 0.0
18.36000, 0.0
18.38000, 0.0
18.40000, 0.0
18.42000, 0.0
18.44000, 0.0
18.46000, 0.0
18.48000, 0.0
18.50000, 0.0
18.52000, 0.0
18.54000, 0.0
18.56000, 0.0
18.58000, 0.0
18.60000, 0.0
18.62000, 0.0
18.64000, 0.0
18.66000, 0.0
18.68000, 0.0
18.70000, 0.0
18.72000, 0.0
18.74000, 0.0
18.76000, 0.0
18.78000, 0.0
18.80000, 0.0
18.82000, 0.0
18.84000, 0.0
18.86000, 0.0
18.88000, 0.0
18.90000, 0.0
18.92000, 0.0
18.94000, 0.0
18.96000, 0.0
18.98000, 0.0
19.00000, 0.0
19.02000, 0.0
19.04000, 0.0
19.06000, 0.0
19.08000, 0.0
19.10000, 0.0
19.12000, 0.0
19.14000, 0.0
19.16000, 0.0
19.18000, 0.0
19.20000, 0.0
19.22000, 0.0
19.24000, 0.0
19.26000, 0.0
19.28000, 0.0
19.30000, 0.0
19.32000, 0.0
19.34000, 0.0
19.36000, 0.0
19.38000, 0.0
19.40000, 0.0
19.42000, 0.0
19.44000, 0.0
19.46000, 0.0
19.48000, 0.0
19.50000, 0.0
19.52000, 0.0
19.54000, 0.0
19.56000, 0.0
19.58000, 0.0
19.60000, 0.0
19.62000, 0.0
19.64000, 0.0
19.66000, 0.0
19.68000, 0.0
19.70000, 0.0
19.72000, 0.0
19.74000, 0.0
19.76000, 0.0
19.78000, 0.0
19.80000, 0.0
19.82000, 0.0
19.84000, 0.0
19.86000, 0.0
19.88000, 0.0
19.90000, 0.0
19.92000, 0.0
19.94000, 0.0
19.96000, 0.0
19.98000, 0.0
20.00000, 0.0
20.02000, 0.0
20.04000, 0.0
20.06000, 0.0
20.08000, 0.0
20.10000, 0.0
20.12000, 0.0
20.14000, 0.0
20.16000, 0.0
20.18000, 0.0
20.20000, 0.0
20.22000, 0.0
20.24000, 0.0
20.26000, 0.0
20.27000, 0.0
#ENDOFDATA   :