File: data/2022-09-06_EDS-SEM-APREO/NW_30kV.emsa
#FORMAT      : EMSA/MAS Spectral Data File
#VERSION     : 1.0
#TITLE       : NW_30kV
#DATE        : 06-SEP-2022
#TIME        : 16:17
#OWNER       :
#NPOINTS     : 2048.0
#NCOLUMNS    : 1.0
#XUNITS      : keV
#YUNITS      : counts
#DATATYPE    : XY
#XPERCHAN    : 0.01
#OFFSET      : -0.2
#SIGNALTYPE  : EDS
#CHOFFSET    : 20.0
#LIVETIME    : 120.0
#REALTIME    : 137.831
#BEAMKV      : 30.0
#MAGCAM      : 97876.0
#XTILTSTGE   : 0.0
#AZIMANGLE   : 0.0
#ELEVANGLE   : 35.0
#XPOSITION mm: -4.8487
#YPOSITION mm: -16.6872
#ZPOSITION mm: 9.9088
##OXINSTPT   : 5
##OXINSTSTROB: 36.56
##OXINSTNDET : 1
##OXINSTELEMS: 8,33,31,6
##OXINSTLABEL: 8, 0.522, O
##OXINSTLABEL: 33, 10.544, As
##OXINSTLABEL: 33, 11.726, As
##OXINSTLABEL: 33, 1.282, As
##OXINSTLABEL: 33, 1.155, As
##OXINSTLABEL: 33, 1.120, As
##OXINSTLABEL: 31, 9.252, Ga
##OXINSTLABEL: 31, 10.264, Ga
##OXINSTLABEL: 31, 1.098, Ga
##OXINSTLABEL: 31, 0.984, Ga
##OXINSTLABEL: 31, 0.957, Ga
##OXINSTLABEL: 6, 0.277, C
#SPECTRUM    : Spectral Data Starts Here
-0.20000, 0.0
-0.18000, 0.0
-0.16000, 0.0
-0.14000, 0.0
-0.12000, 0.0
-0.10000, 0.0
-0.08000, 0.0
-0.06000, 3.0
-0.04000, 72.0
-0.02000, 1059.0
0.00000, 5009.0
0.02000, 8923.0
0.04000, 5200.0
0.06000, 879.0
0.08000, 289.0
0.10000, 377.0
0.12000, 450.0
0.14000, 508.0
0.16000, 607.0
0.18000, 601.0
0.20000, 658.0
0.22000, 818.0
0.24000, 1205.0
0.26000, 1875.0
0.28000, 1522.0
0.30000, 793.0
0.32000, 453.0
0.34000, 454.0
0.36000, 518.0
0.38000, 622.0
0.40000, 711.0
0.42000, 759.0
0.44000, 803.0
0.46000, 818.0
0.48000, 1110.0
0.50000, 1846.0
0.52000, 2369.0
0.54000, 1893.0
0.56000, 1068.0
0.58000, 757.0
0.60000, 731.0
0.62000, 688.0
0.64000, 771.0
0.66000, 819.0
0.68000, 846.0
0.70000, 879.0
0.72000, 957.0
0.74000, 996.0
0.76000, 977.0
0.78000, 1017.0
0.80000, 1060.0
0.82000, 1270.0
0.84000, 1473.0
0.86000, 1477.0
0.88000, 1514.0
0.90000, 1865.0
0.92000, 2650.0
0.94000, 3196.0
0.96000, 3067.0
0.98000, 2572.0
1.00000, 1836.0
1.02000, 1623.0
1.04000, 2997.0
1.06000, 7760.0
1.08000, 16766.0
1.10000, 24653.0
1.12000, 24035.0
1.14000, 15988.0
1.16000, 7697.0
1.18000, 3249.0
1.20000, 1933.0
1.22000, 2503.0
1.24000, 5834.0
1.26000, 12787.0
1.28000, 19612.0
1.30000, 20572.0
1.32000, 15709.0
1.34000, 9180.0
1.36000, 4347.0
1.38000, 1982.0
1.40000, 1157.0
1.42000, 806.0
1.44000, 596.0
1.46000, 514.0
1.48000, 484.0
1.50000, 491.0
1.52000, 508.0
1.54000, 501.0
1.56000, 487.0
1.58000, 447.0
1.60000, 490.0
1.62000, 464.0
1.64000, 526.0
1.66000, 504.0
1.68000, 530.0
1.70000, 520.0
1.72000, 577.0
1.74000, 562.0
1.76000, 561.0
1.78000, 498.0
1.80000, 499.0
1.82000, 450.0
1.84000, 428.0
1.86000, 425.0
1.88000, 392.0
1.90000, 387.0
1.92000, 340.0
1.94000, 383.0
1.96000, 394.0
1.98000, 455.0
2.00000, 532.0
2.02000, 554.0
2.04000, 500.0
2.06000, 427.0
2.08000, 356.0
2.10000, 370.0
2.12000, 340.0
2.14000, 361.0
2.16000, 336.0
2.18000, 355.0
2.20000, 346.0
2.22000, 428.0
2.24000, 446.0
2.26000, 594.0
2.28000, 697.0
2.30000, 761.0
2.32000, 693.0
2.34000, 602.0
2.36000, 518.0
2.38000, 546.0
2.40000, 495.0
2.42000, 520.0
2.44000, 448.0
2.46000, 400.0
2.48000, 356.0
2.50000, 352.0
2.52000, 322.0
2.54000, 312.0
2.56000, 318.0
2.58000, 304.0
2.60000, 321.0
2.62000, 323.0
2.64000, 286.0
2.66000, 276.0
2.68000, 284.0
2.70000, 302.0
2.72000, 273.0
2.74000, 263.0
2.76000, 266.0
2.78000, 280.0
2.80000, 290.0
2.82000, 255.0
2.84000, 275.0
2.86000, 258.0
2.88000, 278.0
2.90000, 256.0
2.92000, 243.0
2.94000, 243.0
2.96000, 244.0
2.98000, 264.0
3.00000, 221.0
3.02000, 254.0
3.04000, 237.0
3.06000, 259.0
3.08000, 248.0
3.10000, 239.0
3.12000, 233.0
3.14000, 248.0
3.16000, 256.0
3.18000, 268.0
3.20000, 246.0
3.22000, 250.0
3.24000, 269.0
3.26000, 223.0
3.28000, 229.0
3.30000, 241.0
3.32000, 219.0
3.34000, 251.0
3.36000, 227.0
3.38000, 238.0
3.40000, 241.0
3.42000, 243.0
3.44000, 231.0
3.46000, 230.0
3.48000, 242.0
3.50000, 244.0
3.52000, 283.0
3.54000, 362.0
3.56000, 463.0
3.58000, 589.0
3.60000, 710.0
3.62000, 699.0
3.64000, 608.0
3.66000, 472.0
3.68000, 342.0
3.70000, 261.0
3.72000, 222.0
3.74000, 208.0
3.76000, 242.0
3.78000, 252.0
3.80000, 309.0
3.82000, 375.0
3.84000, 428.0
3.86000, 427.0
3.88000, 393.0
3.90000, 368.0
3.92000, 306.0
3.94000, 275.0
3.96000, 276.0
3.98000, 236.0
4.00000, 225.0
4.02000, 214.0
4.04000, 214.0
4.06000, 219.0
4.08000, 230.0
4.10000, 265.0
4.12000, 247.0
4.14000, 228.0
4.16000, 226.0
4.18000, 195.0
4.20000, 183.0
4.22000, 185.0
4.24000, 190.0
4.26000, 180.0
4.28000, 183.0
4.30000, 207.0
4.32000, 203.0
4.34000, 190.0
4.36000, 210.0
4.38000, 183.0
4.40000, 186.0
4.42000, 182.0
4.44000, 170.0
4.46000, 178.0
4.48000, 184.0
4.50000, 171.0
4.52000, 182.0
4.54000, 184.0
4.56000, 169.0
4.58000, 173.0
4.60000, 183.0
4.62000, 173.0
4.64000, 177.0
4.66000, 160.0
4.68000, 163.0
4.70000, 163.0
4.72000, 171.0
4.74000, 155.0
4.76000, 150.0
4.78000, 154.0
4.80000, 157.0
4.82000, 166.0
4.84000, 152.0
4.86000, 156.0
4.88000, 156.0
4.90000, 160.0
4.92000, 160.0
4.94000, 147.0
4.96000, 169.0
4.98000, 152.0
5.00000, 146.0
5.02000, 148.0
5.04000, 139.0
5.06000, 141.0
5.08000, 147.0
5.10000, 142.0
5.12000, 149.0
5.14000, 145.0
5.16000, 162.0
5.18000, 168.0
5.20000, 150.0
5.22000, 123.0
5.24000, 155.0
5.26000, 145.0
5.28000, 146.0
5.30000, 133.0
5.32000, 137.0
5.34000, 151.0
5.36000, 144.0
5.38000, 155.0
5.40000, 155.0
5.42000, 158.0
5.44000, 140.0
5.46000, 127.0
5.48000, 155.0
5.50000, 149.0
5.52000, 135.0
5.54000, 140.0
5.56000, 143.0
5.58000, 158.0
5.60000, 143.0
5.62000, 130.0
5.64000, 145.0
5.66000, 131.0
5.68000, 134.0
5.70000, 149.0
5.72000, 130.0
5.74000, 129.0
5.76000, 166.0
5.78000, 134.0
5.80000, 143.0
5.82000, 141.0
5.84000, 121.0
5.86000, 126.0
5.88000, 135.0
5.90000, 131.0
5.92000, 132.0
5.94000, 131.0
5.96000, 118.0
5.98000, 128.0
6.00000, 130.0
6.02000, 134.0
6.04000, 121.0
6.06000, 136.0
6.08000, 123.0
6.10000, 120.0
6.12000, 135.0
6.14000, 137.0
6.16000, 131.0
6.18000, 119.0
6.20000, 138.0
6.22000, 137.0
6.24000, 138.0
6.26000, 132.0
6.28000, 123.0
6.30000, 146.0
6.32000, 124.0
6.34000, 131.0
6.36000, 139.0
6.38000, 139.0
6.40000, 138.0
6.42000, 134.0
6.44000, 128.0
6.46000, 119.0
6.48000, 134.0
6.50000, 121.0
6.52000, 127.0
6.54000, 118.0
6.56000, 132.0
6.58000, 119.0
6.60000, 117.0
6.62000, 111.0
6.64000, 139.0
6.66000, 117.0
6.68000, 116.0
6.70000, 127.0
6.72000, 131.0
6.74000, 123.0
6.76000, 105.0
6.78000, 124.0
6.80000, 112.0
6.82000, 119.0
6.84000, 115.0
6.86000, 128.0
6.88000, 122.0
6.90000, 125.0
6.92000, 129.0
6.94000, 122.0
6.96000, 118.0
6.98000, 116.0
7.00000, 122.0
7.02000, 118.0
7.04000, 129.0
7.06000, 130.0
7.08000, 108.0
7.10000, 118.0
7.12000, 112.0
7.14000, 109.0
7.16000, 118.0
7.18000, 129.0
7.20000, 116.0
7.22000, 107.0
7.24000, 115.0
7.26000, 105.0
7.28000, 129.0
7.30000, 121.0
7.32000, 145.0
7.34000, 158.0
7.36000, 213.0
7.38000, 301.0
7.40000, 403.0
7.42000, 499.0
7.44000, 597.0
7.46000, 666.0
7.48000, 678.0
7.50000, 620.0
7.52000, 507.0
7.54000, 372.0
7.56000, 290.0
7.58000, 229.0
7.60000, 168.0
7.62000, 133.0
7.64000, 130.0
7.66000, 100.0
7.68000, 114.0
7.70000, 119.0
7.72000, 107.0
7.74000, 118.0
7.76000, 109.0
7.78000, 113.0
7.80000, 115.0
7.82000, 136.0
7.84000, 145.0
7.86000, 164.0
7.88000, 242.0
7.90000, 377.0
7.92000, 616.0
7.94000, 1014.0
7.96000, 1514.0
7.98000, 2085.0
8.00000, 2662.0
8.02000, 3103.0
8.04000, 3308.0
8.06000, 3126.0
8.08000, 2512.0
8.10000, 2012.0
8.12000, 1435.0
8.14000, 926.0
8.16000, 570.0
8.18000, 360.0
8.20000, 262.0
8.22000, 208.0
8.24000, 190.0
8.26000, 215.0
8.28000, 191.0
8.30000, 183.0
8.32000, 152.0
8.34000, 135.0
8.36000, 138.0
8.38000, 126.0
8.40000, 102.0
8.42000, 106.0
8.44000, 103.0
8.46000, 107.0
8.48000, 109.0
8.50000, 107.0
8.52000, 122.0
8.54000, 106.0
8.56000, 99.0
8.58000, 108.0
8.60000, 104.0
8.62000, 105.0
8.64000, 125.0
8.66000, 104.0
8.68000, 117.0
8.70000, 125.0
8.72000, 123.0
8.74000, 130.0
8.76000, 150.0
8.78000, 216.0
8.80000, 243.0
8.82000, 285.0
8.84000, 394.0
8.86000, 482.0
8.88000, 525.0
8.90000, 544.0
8.92000, 507.0
8.94000, 492.0
8.96000, 395.0
8.98000, 305.0
9.00000, 240.0
9.02000, 186.0
9.04000, 186.0
9.06000, 246.0
9.08000, 357.0
9.10000, 552.0
9.12000, 958.0
9.14000, 1424.0
9.16000, 2146.0
9.18000, 2875.0
9.20000, 3526.0
9.22000, 4077.0
9.24000, 4104.0
9.26000, 3995.0
9.28000, 3415.0
9.30000, 2680.0
9.32000, 1952.0
9.34000, 1342.0
9.36000, 787.0
9.38000, 503.0
9.40000, 284.0
9.42000, 183.0
9.44000, 127.0
9.46000, 99.0
9.48000, 96.0
9.50000, 71.0
9.52000, 79.0
9.54000, 69.0
9.56000, 84.0
9.58000, 70.0
9.60000, 77.0
9.62000, 77.0
9.64000, 61.0
9.66000, 65.0
9.68000, 71.0
9.70000, 75.0
9.72000, 71.0
9.74000, 64.0
9.76000, 57.0
9.78000, 62.0
9.80000, 68.0
9.82000, 82.0
9.84000, 80.0
9.86000, 62.0
9.88000, 70.0
9.90000, 67.0
9.92000, 69.0
9.94000, 75.0
9.96000, 79.0
9.98000, 81.0
10.00000, 81.0
10.02000, 78.0
10.04000, 88.0
10.06000, 107.0
10.08000, 95.0
10.10000, 118.0
10.12000, 155.0
10.14000, 225.0
10.16000, 286.0
10.18000, 372.0
10.20000, 467.0
10.22000, 548.0
10.24000, 582.0
10.26000, 617.0
10.28000, 601.0
10.30000, 541.0
10.32000, 464.0
10.34000, 468.0
10.36000, 460.0
10.38000, 577.0
10.40000, 764.0
10.42000, 1114.0
10.44000, 1504.0
10.46000, 1935.0
10.48000, 2481.0
10.50000, 2702.0
10.52000, 2947.0
10.54000, 2830.0
10.56000, 2597.0
10.58000, 2181.0
10.60000, 1654.0
10.62000, 1228.0
10.64000, 773.0
10.66000, 525.0
10.68000, 332.0
10.70000, 183.0
10.72000, 133.0
10.74000, 96.0
10.76000, 80.0
10.78000, 70.0
10.80000, 62.0
10.82000, 67.0
10.84000, 66.0
10.86000, 64.0
10.88000, 53.0
10.90000, 56.0
10.92000, 60.0
10.94000, 45.0
10.96000, 56.0
10.98000, 58.0
11.00000, 62.0
11.02000, 59.0
11.04000, 63.0
11.06000, 59.0
11.08000, 60.0
11.10000, 64.0
11.12000, 54.0
11.14000, 54.0
11.16000, 66.0
11.18000, 61.0
11.20000, 51.0
11.22000, 52.0
11.24000, 60.0
11.26000, 64.0
11.28000, 63.0
11.30000, 60.0
11.32000, 64.0
11.34000, 56.0
11.36000, 49.0
11.38000, 67.0
11.40000, 63.0
11.42000, 61.0
11.44000, 64.0
11.46000, 66.0
11.48000, 71.0
11.50000, 55.0
11.52000, 71.0
11.54000, 79.0
11.56000, 112.0
11.58000, 132.0
11.60000, 177.0
11.62000, 234.0
11.64000, 323.0
11.66000, 354.0
11.68000, 377.0
11.70000, 445.0
11.72000, 450.0
11.74000, 431.0
11.76000, 382.0
11.78000, 344.0
11.80000, 264.0
11.82000, 192.0
11.84000, 154.0
11.86000, 116.0
11.88000, 106.0
11.90000, 87.0
11.92000, 65.0
11.94000, 64.0
11.96000, 53.0
11.98000, 59.0
12.00000, 65.0
12.02000, 54.0
12.04000, 52.0
12.06000, 53.0
12.08000, 57.0
12.10000, 53.0
12.12000, 47.0
12.14000, 58.0
12.16000, 45.0
12.18000, 46.0
12.20000, 45.0
12.22000, 57.0
12.24000, 41.0
12.26000, 58.0
12.28000, 53.0
12.30000, 46.0
12.32000, 57.0
12.34000, 47.0
12.36000, 49.0
12.38000, 40.0
12.40000, 45.0
12.42000, 53.0
12.44000, 50.0
12.46000, 44.0
12.48000, 50.0
12.50000, 47.0
12.52000, 42.0
12.54000, 51.0
12.56000, 36.0
12.58000, 50.0
12.60000, 41.0
12.62000, 45.0
12.64000, 46.0
12.66000, 45.0
12.68000, 36.0
12.70000, 45.0
12.72000, 48.0
12.74000, 39.0
12.76000, 44.0
12.78000, 44.0
12.80000, 47.0
12.82000, 48.0
12.84000, 42.0
12.86000, 48.0
12.88000, 45.0
12.90000, 47.0
12.92000, 43.0
12.94000, 48.0
12.96000, 53.0
12.98000, 54.0
13.00000, 43.0
13.02000, 36.0
13.04000, 39.0
13.06000, 46.0
13.08000, 52.0
13.10000, 46.0
13.12000, 40.0
13.14000, 42.0
13.16000, 40.0
13.18000, 45.0
13.20000, 40.0
13.22000, 44.0
13.24000, 41.0
13.26000, 36.0
13.28000, 44.0
13.30000, 45.0
13.32000, 40.0
13.34000, 50.0
13.36000, 41.0
13.38000, 32.0
13.40000, 42.0
13.42000, 42.0
13.44000, 41.0
13.46000, 39.0
13.48000, 42.0
13.50000, 45.0
13.52000, 45.0
13.54000, 37.0
13.56000, 42.0
13.58000, 43.0
13.60000, 33.0
13.62000, 38.0
13.64000, 36.0
13.66000, 36.0
13.68000, 41.0
13.70000, 46.0
13.72000, 38.0
13.74000, 43.0
13.76000, 35.0
13.78000, 46.0
13.80000, 42.0
13.82000, 44.0
13.84000, 45.0
13.86000, 35.0
13.88000, 36.0
13.90000, 39.0
13.92000, 31.0
13.94000, 46.0
13.96000, 40.0
13.98000, 40.0
14.00000, 42.0
14.02000, 32.0
14.04000, 40.0
14.06000, 40.0
14.08000, 41.0
14.10000, 34.0
14.12000, 40.0
14.14000, 32.0
14.16000, 36.0
14.18000, 31.0
14.20000, 46.0
14.22000, 35.0
14.24000, 39.0
14.26000, 37.0
14.28000, 45.0
14.30000, 45.0
14.32000, 46.0
14.34000, 35.0
14.36000, 35.0
14.38000, 34.0
14.40000, 34.0
14.42000, 38.0
14.44000, 33.0
14.46000, 31.0
14.48000, 34.0
14.50000, 42.0
14.52000, 44.0
14.54000, 39.0
14.56000, 33.0
14.58000, 27.0
14.60000, 30.0
14.62000, 33.0
14.64000, 34.0
14.66000, 39.0
14.68000, 29.0
14.70000, 34.0
14.72000, 39.0
14.74000, 32.0
14.76000, 27.0
14.78000, 40.0
14.80000, 34.0
14.82000, 34.0
14.84000, 33.0
14.86000, 32.0
14.88000, 36.0
14.90000, 37.0
14.92000, 30.0
14.94000, 33.0
14.96000, 26.0
14.98000, 37.0
15.00000, 30.0
15.02000, 36.0
15.04000, 30.0
15.06000, 27.0
15.08000, 33.0
15.10000, 38.0
15.12000, 32.0
15.14000, 29.0
15.16000, 27.0
15.18000, 35.0
15.20000, 22.0
15.22000, 32.0
15.24000, 32.0
15.26000, 27.0
15.28000, 30.0
15.30000, 31.0
15.32000, 32.0
15.34000, 40.0
15.36000, 32.0
15.38000, 32.0
15.40000, 37.0
15.42000, 29.0
15.44000, 28.0
15.46000, 31.0
15.48000, 35.0
15.50000, 30.0
15.52000, 31.0
15.54000, 30.0
15.56000, 26.0
15.58000, 26.0
15.60000, 32.0
15.62000, 38.0
15.64000, 31.0
15.66000, 26.0
15.68000, 28.0
15.70000, 27.0
15.72000, 35.0
15.74000, 32.0
15.76000, 31.0
15.78000, 31.0
15.80000, 29.0
15.82000, 28.0
15.84000, 24.0
15.86000, 28.0
15.88000, 29.0
15.90000, 28.0
15.92000, 22.0
15.94000, 31.0
15.96000, 24.0
15.98000, 31.0
16.00000, 24.0
16.02000, 23.0
16.04000, 32.0
16.06000, 28.0
16.08000, 27.0
16.10000, 26.0
16.12000, 26.0
16.14000, 23.0
16.16000, 31.0
16.18000, 29.0
16.20000, 31.0
16.22000, 23.0
16.24000, 29.0
16.26000, 22.0
16.28000, 24.0
16.30000, 23.0
16.32000, 32.0
16.34000, 30.0
16.36000, 23.0
16.38000, 33.0
16.40000, 24.0
16.42000, 22.0
16.44000, 29.0
16.46000, 28.0
16.48000, 27.0
16.50000, 27.0
16.52000, 27.0
16.54000, 27.0
16.56000, 20.0
16.58000, 23.0
16.60000, 29.0
16.62000, 33.0
16.64000, 29.0
16.66000, 17.0
16.68000, 26.0
16.70000, 24.0
16.72000, 28.0
16.74000, 24.0
16.76000, 21.0
16.78000, 23.0
16.80000, 20.0
16.82000, 28.0
16.84000, 22.0
16.86000, 24.0
16.88000, 20.0
16.90000, 23.0
16.92000, 22.0
16.94000, 18.0
16.96000, 25.0
16.98000, 21.0
17.00000, 24.0
17.02000, 20.0
17.04000, 25.0
17.06000, 23.0
17.08000, 30.0
17.10000, 22.0
17.12000, 25.0
17.14000, 22.0
17.16000, 32.0
17.18000, 18.0
17.20000, 23.0
17.22000, 26.0
17.24000, 41.0
17.26000, 36.0
17.28000, 32.0
17.30000, 32.0
17.32000, 35.0
17.34000, 34.0
17.36000, 32.0
17.38000, 39.0
17.40000, 32.0
17.42000, 37.0
17.44000, 40.0
17.46000, 41.0
17.48000, 41.0
17.50000, 37.0
17.52000, 35.0
17.54000, 32.0
17.56000, 27.0
17.58000, 23.0
17.60000, 30.0
17.62000, 23.0
17.64000, 20.0
17.66000, 16.0
17.68000, 20.0
17.70000, 17.0
17.72000, 26.0
17.74000, 19.0
17.76000, 17.0
17.78000, 19.0
17.80000, 27.0
17.82000, 24.0
17.84000, 21.0
17.86000, 25.0
17.88000, 19.0
17.90000, 19.0
17.92000, 22.0
17.94000, 17.0
17.96000, 19.0
17.98000, 21.0
18.00000, 19.0
18.02000, 24.0
18.04000, 21.0
18.06000, 22.0
18.08000, 21.0
18.10000, 27.0
18.12000, 24.0
18.14000, 26.0
18.16000, 20.0
18.18000, 24.0
18.20000, 16.0
18.22000, 21.0
18.24000, 18.0
18.26000, 19.0
18.28000, 15.0
18.30000, 19.0
18.32000, 17.0
18.34000, 17.0
18.36000, 13.0
18.38000, 14.0
18.40000, 14.0
18.42000, 20.0
18.44000, 17.0
18.46000, 20.0
18.48000, 18.0
18.50000, 21.0
18.52000, 19.0
18.54000, 19.0
18.56000, 15.0
18.58000, 17.0
18.60000, 20.0
18.62000, 16.0
18.64000, 14.0
18.66000, 17.0
18.68000, 16.0
18.70000, 23.0
18.72000, 20.0
18.74000, 17.0
18.76000, 16.0
18.78000, 18.0
18.80000, 19.0
18.82000, 14.0
18.84000, 15.0
18.86000, 19.0
18.88000, 15.0
18.90000, 16.0
18.92000, 20.0
18.94000, 19.0
18.96000, 20.0
18.98000, 16.0
19.00000, 23.0
19.02000, 18.0
19.04000, 18.0
19.06000, 24.0
19.08000, 16.0
19.10000, 16.0
19.12000, 16.0
19.14000, 19.0
19.16000, 13.0
19.18000, 11.0
19.20000, 11.0
19.22000, 20.0
19.24000, 14.0
19.26000, 19.0
19.28000, 16.0
19.30000, 15.0
19.32000, 13.0
19.34000, 19.0
19.36000, 16.0
19.38000, 16.0
19.40000, 12.0
19.42000, 12.0
19.44000, 16.0
19.46000, 15.0
19.48000, 15.0
19.50000, 19.0
19.52000, 18.0
19.54000, 14.0
19.56000, 19.0
19.58000, 19.0
19.60000, 20.0
19.62000, 20.0
19.64000, 20.0
19.66000, 25.0
19.68000, 26.0
19.70000, 17.0
19.72000, 16.0
19.74000, 18.0
19.76000, 19.0
19.78000, 15.0
19.80000, 13.0
19.82000, 16.0
19.84000, 16.0
19.86000, 15.0
19.88000, 15.0
19.90000, 8.0
19.92000, 15.0
19.94000, 14.0
19.96000, 15.0
19.98000, 14.0
20.00000, 11.0
20.02000, 11.0
20.04000, 16.0
20.06000, 13.0
20.08000, 14.0
20.10000, 11.0
20.12000, 15.0
20.14000, 18.0
20.16000, 12.0
20.18000, 11.0
20.20000, 10.0
20.22000, 11.0
20.24000, 15.0
20.26000, 14.0
20.27000, 14.0
#ENDOFDATA   :