File: data/2022-09-06_EDS-SEM-APREO/Si_10kV.emsa
#FORMAT      : EMSA/MAS Spectral Data File
#VERSION     : 1.0
#TITLE       : Si_10kV
#DATE        : 06-SEP-2022
#TIME        : 17:12
#OWNER       :
#NPOINTS     : 2048.0
#NCOLUMNS    : 1.0
#XUNITS      : keV
#YUNITS      : counts
#DATATYPE    : XY
#XPERCHAN    : 0.01
#OFFSET      : -0.2
#SIGNALTYPE  : EDS
#CHOFFSET    : 20.0
#LIVETIME    : 45.0
#REALTIME    : 133.729
#BEAMKV      : 10.0
#MAGCAM      : 1958.0
#XTILTSTGE   : 0.0
#AZIMANGLE   : 0.0
#ELEVANGLE   : 35.0
#XPOSITION mm: 10.6075
#YPOSITION mm: -10.1979
#ZPOSITION mm: 9.9088
##OXINSTPT   : 5
##OXINSTSTROB: 36.78
##OXINSTNDET : 1
##OXINSTELEMS: 25,50,8,12
##OXINSTLABEL: 25, 5.899, Mn
##OXINSTLABEL: 25, 6.490, Mn
##OXINSTLABEL: 25, 0.636, Mn
##OXINSTLABEL: 25, 0.556, Mn
##OXINSTLABEL: 50, 3.444, Sn
##OXINSTLABEL: 50, 3.666, Sn
##OXINSTLABEL: 50, 3.905, Sn
##OXINSTLABEL: 50, 3.272, Sn
##OXINSTLABEL: 50, 4.131, Sn
##OXINSTLABEL: 50, 4.377, Sn
##OXINSTLABEL: 50, 3.045, Sn
##OXINSTLABEL: 50, 0.397, Sn
##OXINSTLABEL: 8, 0.522, O
##OXINSTLABEL: 12, 1.254, Mg
#SPECTRUM    : Spectral Data Starts Here
-0.20000, 0.0
-0.18000, 0.0
-0.16000, 0.0
-0.14000, 0.0
-0.12000, 0.0
-0.10000, 0.0
-0.08000, 0.0
-0.06000, 0.0
-0.04000, 30.0
-0.02000, 418.0
0.00000, 1550.0
0.02000, 2125.0
0.04000, 1098.0
0.06000, 1794.0
0.08000, 6099.0
0.10000, 6927.0
0.12000, 2578.0
0.14000, 547.0
0.16000, 357.0
0.18000, 377.0
0.20000, 440.0
0.22000, 539.0
0.24000, 937.0
0.26000, 1406.0
0.28000, 1302.0
0.30000, 712.0
0.32000, 472.0
0.34000, 497.0
0.36000, 595.0
0.38000, 729.0
0.40000, 838.0
0.42000, 964.0
0.44000, 1152.0
0.46000, 1302.0
0.48000, 1616.0
0.50000, 1837.0
0.52000, 1990.0
0.54000, 1798.0
0.56000, 1734.0
0.58000, 1775.0
0.60000, 1874.0
0.62000, 2018.0
0.64000, 2162.0
0.66000, 2289.0
0.68000, 2349.0
0.70000, 2403.0
0.72000, 2496.0
0.74000, 2505.0
0.76000, 2654.0
0.78000, 2639.0
0.80000, 2669.0
0.82000, 2712.0
0.84000, 2827.0
0.86000, 2837.0
0.88000, 2890.0
0.90000, 2900.0
0.92000, 2930.0
0.94000, 2779.0
0.96000, 2901.0
0.98000, 2809.0
1.00000, 2855.0
1.02000, 2800.0
1.04000, 2835.0
1.06000, 2830.0
1.08000, 2754.0
1.10000, 2821.0
1.12000, 2779.0
1.14000, 2836.0
1.16000, 2688.0
1.18000, 2688.0
1.20000, 2726.0
1.22000, 2589.0
1.24000, 2664.0
1.26000, 2592.0
1.28000, 2640.0
1.30000, 2608.0
1.32000, 2613.0
1.34000, 2541.0
1.36000, 2586.0
1.38000, 2587.0
1.40000, 2580.0
1.42000, 2677.0
1.44000, 2686.0
1.46000, 2847.0
1.48000, 2845.0
1.50000, 2990.0
1.52000, 3100.0
1.54000, 3173.0
1.56000, 3169.0
1.58000, 3231.0
1.60000, 3173.0
1.62000, 3405.0
1.64000, 5153.0
1.66000, 14052.0
1.68000, 46136.0
1.70000, 120729.0
1.72000, 222546.0
1.74000, 281605.0
1.76000, 243783.0
1.78000, 146421.0
1.80000, 66233.0
1.82000, 29651.0
1.84000, 17766.0
1.86000, 11828.0
1.88000, 6874.0
1.90000, 3452.0
1.92000, 1811.0
1.94000, 1291.0
1.96000, 1127.0
1.98000, 1083.0
2.00000, 1084.0
2.02000, 1046.0
2.04000, 1052.0
2.06000, 985.0
2.08000, 1010.0
2.10000, 988.0
2.12000, 976.0
2.14000, 994.0
2.16000, 966.0
2.18000, 981.0
2.20000, 992.0
2.22000, 997.0
2.24000, 967.0
2.26000, 1029.0
2.28000, 1019.0
2.30000, 1061.0
2.32000, 987.0
2.34000, 996.0
2.36000, 971.0
2.38000, 1015.0
2.40000, 1002.0
2.42000, 974.0
2.44000, 989.0
2.46000, 1025.0
2.48000, 981.0
2.50000, 1011.0
2.52000, 996.0
2.54000, 955.0
2.56000, 995.0
2.58000, 988.0
2.60000, 1024.0
2.62000, 1025.0
2.64000, 1007.0
2.66000, 969.0
2.68000, 979.0
2.70000, 936.0
2.72000, 957.0
2.74000, 961.0
2.76000, 927.0
2.78000, 946.0
2.80000, 933.0
2.82000, 874.0
2.84000, 943.0
2.86000, 890.0
2.88000, 883.0
2.90000, 899.0
2.92000, 904.0
2.94000, 899.0
2.96000, 905.0
2.98000, 852.0
3.00000, 859.0
3.02000, 858.0
3.04000, 835.0
3.06000, 847.0
3.08000, 827.0
3.10000, 849.0
3.12000, 862.0
3.14000, 813.0
3.16000, 844.0
3.18000, 825.0
3.20000, 825.0
3.22000, 829.0
3.24000, 850.0
3.26000, 817.0
3.28000, 799.0
3.30000, 823.0
3.32000, 849.0
3.34000, 829.0
3.36000, 843.0
3.38000, 986.0
3.40000, 1467.0
3.42000, 2274.0
3.44000, 3514.0
3.46000, 4730.0
3.48000, 5425.0
3.50000, 5269.0
3.52000, 4221.0
3.54000, 3008.0
3.56000, 2070.0
3.58000, 1486.0
3.60000, 1148.0
3.62000, 919.0
3.64000, 814.0
3.66000, 721.0
3.68000, 643.0
3.70000, 622.0
3.72000, 602.0
3.74000, 613.0
3.76000, 606.0
3.78000, 604.0
3.80000, 587.0
3.82000, 569.0
3.84000, 571.0
3.86000, 564.0
3.88000, 559.0
3.90000, 569.0
3.92000, 570.0
3.94000, 567.0
3.96000, 588.0
3.98000, 551.0
4.00000, 547.0
4.02000, 567.0
4.04000, 513.0
4.06000, 550.0
4.08000, 504.0
4.10000, 547.0
4.12000, 517.0
4.14000, 504.0
4.16000, 498.0
4.18000, 508.0
4.20000, 480.0
4.22000, 497.0
4.24000, 493.0
4.26000, 515.0
4.28000, 477.0
4.30000, 481.0
4.32000, 486.0
4.34000, 472.0
4.36000, 446.0
4.38000, 444.0
4.40000, 495.0
4.42000, 429.0
4.44000, 450.0
4.46000, 447.0
4.48000, 444.0
4.50000, 440.0
4.52000, 441.0
4.54000, 443.0
4.56000, 423.0
4.58000, 421.0
4.60000, 439.0
4.62000, 418.0
4.64000, 404.0
4.66000, 400.0
4.68000, 399.0
4.70000, 435.0
4.72000, 392.0
4.74000, 422.0
4.76000, 378.0
4.78000, 422.0
4.80000, 385.0
4.82000, 424.0
4.84000, 389.0
4.86000, 387.0
4.88000, 372.0
4.90000, 367.0
4.92000, 371.0
4.94000, 378.0
4.96000, 376.0
4.98000, 386.0
5.00000, 345.0
5.02000, 376.0
5.04000, 380.0
5.06000, 359.0
5.08000, 347.0
5.10000, 329.0
5.12000, 382.0
5.14000, 355.0
5.16000, 373.0
5.18000, 366.0
5.20000, 412.0
5.22000, 404.0
5.24000, 424.0
5.26000, 404.0
5.28000, 369.0
5.30000, 338.0
5.32000, 330.0
5.34000, 342.0
5.36000, 322.0
5.38000, 314.0
5.40000, 316.0
5.42000, 309.0
5.44000, 293.0
5.46000, 286.0
5.48000, 300.0
5.50000, 301.0
5.52000, 266.0
5.54000, 271.0
5.56000, 277.0
5.58000, 273.0
5.60000, 271.0
5.62000, 278.0
5.64000, 292.0
5.66000, 270.0
5.68000, 288.0
5.70000, 261.0
5.72000, 278.0
5.74000, 279.0
5.76000, 275.0
5.78000, 272.0
5.80000, 263.0
5.82000, 258.0
5.84000, 257.0
5.86000, 240.0
5.88000, 251.0
5.90000, 266.0
5.92000, 251.0
5.94000, 249.0
5.96000, 233.0
5.98000, 255.0
6.00000, 236.0
6.02000, 239.0
6.04000, 219.0
6.06000, 237.0
6.08000, 226.0
6.10000, 239.0
6.12000, 217.0
6.14000, 223.0
6.16000, 213.0
6.18000, 199.0
6.20000, 242.0
6.22000, 193.0
6.24000, 246.0
6.26000, 221.0
6.28000, 218.0
6.30000, 201.0
6.32000, 214.0
6.34000, 214.0
6.36000, 206.0
6.38000, 194.0
6.40000, 210.0
6.42000, 199.0
6.44000, 207.0
6.46000, 184.0
6.48000, 203.0
6.50000, 188.0
6.52000, 184.0
6.54000, 191.0
6.56000, 195.0
6.58000, 193.0
6.60000, 184.0
6.62000, 175.0
6.64000, 176.0
6.66000, 162.0
6.68000, 173.0
6.70000, 182.0
6.72000, 190.0
6.74000, 176.0
6.76000, 173.0
6.78000, 164.0
6.80000, 189.0
6.82000, 161.0
6.84000, 146.0
6.86000, 155.0
6.88000, 137.0
6.90000, 158.0
6.92000, 160.0
6.94000, 173.0
6.96000, 158.0
6.98000, 156.0
7.00000, 159.0
7.02000, 156.0
7.04000, 145.0
7.06000, 138.0
7.08000, 125.0
7.10000, 132.0
7.12000, 135.0
7.14000, 134.0
7.16000, 137.0
7.18000, 134.0
7.20000, 131.0
7.22000, 143.0
7.24000, 127.0
7.26000, 136.0
7.28000, 132.0
7.30000, 122.0
7.32000, 155.0
7.34000, 127.0
7.36000, 128.0
7.38000, 151.0
7.40000, 122.0
7.42000, 118.0
7.44000, 110.0
7.46000, 128.0
7.48000, 117.0
7.50000, 115.0
7.52000, 113.0
7.54000, 118.0
7.56000, 121.0
7.58000, 113.0
7.60000, 99.0
7.62000, 122.0
7.64000, 98.0
7.66000, 125.0
7.68000, 101.0
7.70000, 103.0
7.72000, 104.0
7.74000, 101.0
7.76000, 108.0
7.78000, 94.0
7.80000, 105.0
7.82000, 91.0
7.84000, 89.0
7.86000, 94.0
7.88000, 95.0
7.90000, 87.0
7.92000, 86.0
7.94000, 99.0
7.96000, 88.0
7.98000, 93.0
8.00000, 91.0
8.02000, 86.0
8.04000, 90.0
8.06000, 84.0
8.08000, 89.0
8.10000, 77.0
8.12000, 92.0
8.14000, 85.0
8.16000, 83.0
8.18000, 78.0
8.20000, 81.0
8.22000, 81.0
8.24000, 64.0
8.26000, 83.0
8.28000, 71.0
8.30000, 78.0
8.32000, 70.0
8.34000, 72.0
8.36000, 74.0
8.38000, 58.0
8.40000, 57.0
8.42000, 65.0
8.44000, 75.0
8.46000, 52.0
8.48000, 64.0
8.50000, 56.0
8.52000, 58.0
8.54000, 55.0
8.56000, 56.0
8.58000, 67.0
8.60000, 65.0
8.62000, 54.0
8.64000, 65.0
8.66000, 66.0
8.68000, 61.0
8.70000, 51.0
8.72000, 46.0
8.74000, 47.0
8.76000, 52.0
8.78000, 57.0
8.80000, 43.0
8.82000, 47.0
8.84000, 47.0
8.86000, 37.0
8.88000, 38.0
8.90000, 59.0
8.92000, 42.0
8.94000, 49.0
8.96000, 58.0
8.98000, 34.0
9.00000, 41.0
9.02000, 51.0
9.04000, 37.0
9.06000, 38.0
9.08000, 37.0
9.10000, 38.0
9.12000, 38.0
9.14000, 27.0
9.16000, 39.0
9.18000, 30.0
9.20000, 34.0
9.22000, 40.0
9.24000, 30.0
9.26000, 30.0
9.28000, 25.0
9.30000, 30.0
9.32000, 40.0
9.34000, 33.0
9.36000, 24.0
9.38000, 20.0
9.40000, 25.0
9.42000, 22.0
9.44000, 25.0
9.46000, 22.0
9.48000, 25.0
9.50000, 23.0
9.52000, 24.0
9.54000, 20.0
9.56000, 26.0
9.58000, 25.0
9.60000, 20.0
9.62000, 15.0
9.64000, 22.0
9.66000, 16.0
9.68000, 18.0
9.70000, 21.0
9.72000, 13.0
9.74000, 14.0
9.76000, 16.0
9.78000, 18.0
9.80000, 15.0
9.82000, 15.0
9.84000, 12.0
9.86000, 11.0
9.88000, 11.0
9.90000, 10.0
9.92000, 11.0
9.94000, 10.0
9.96000, 5.0
9.98000, 3.0
10.00000, 11.0
10.02000, 7.0
10.04000, 3.0
10.06000, 6.0
10.08000, 6.0
10.10000, 5.0
10.12000, 7.0
10.14000, 3.0
10.16000, 6.0
10.18000, 4.0
10.20000, 4.0
10.22000, 6.0
10.24000, 5.0
10.26000, 6.0
10.28000, 3.0
10.30000, 3.0
10.32000, 5.0
10.34000, 4.0
10.36000, 4.0
10.38000, 2.0
10.40000, 3.0
10.42000, 3.0
10.44000, 4.0
10.46000, 4.0
10.48000, 4.0
10.50000, 3.0
10.52000, 3.0
10.54000, 2.0
10.56000, 4.0
10.58000, 4.0
10.60000, 3.0
10.62000, 2.0
10.64000, 2.0
10.66000, 5.0
10.68000, 3.0
10.70000, 1.0
10.72000, 2.0
10.74000, 2.0
10.76000, 3.0
10.78000, 2.0
10.80000, 3.0
10.82000, 4.0
10.84000, 2.0
10.86000, 3.0
10.88000, 3.0
10.90000, 3.0
10.92000, 0.0
10.94000, 4.0
10.96000, 1.0
10.98000, 1.0
11.00000, 1.0
11.02000, 1.0
11.04000, 2.0
11.06000, 1.0
11.08000, 2.0
11.10000, 2.0
11.12000, 1.0
11.14000, 1.0
11.16000, 2.0
11.18000, 0.0
11.20000, 1.0
11.22000, 1.0
11.24000, 2.0
11.26000, 3.0
11.28000, 2.0
11.30000, 2.0
11.32000, 1.0
11.34000, 2.0
11.36000, 0.0
11.38000, 2.0
11.40000, 2.0
11.42000, 2.0
11.44000, 1.0
11.46000, 1.0
11.48000, 1.0
11.50000, 1.0
11.52000, 3.0
11.54000, 0.0
11.56000, 1.0
11.58000, 1.0
11.60000, 1.0
11.62000, 1.0
11.64000, 0.0
11.66000, 1.0
11.68000, 0.0
11.70000, 1.0
11.72000, 2.0
11.74000, 1.0
11.76000, 0.0
11.78000, 1.0
11.80000, 1.0
11.82000, 1.0
11.84000, 0.0
11.86000, 0.0
11.88000, 1.0
11.90000, 0.0
11.92000, 1.0
11.94000, 0.0
11.96000, 1.0
11.98000, 0.0
12.00000, 0.0
12.02000, 0.0
12.04000, 0.0
12.06000, 1.0
12.08000, 2.0
12.10000, 1.0
12.12000, 1.0
12.14000, 0.0
12.16000, 0.0
12.18000, 0.0
12.20000, 0.0
12.22000, 0.0
12.24000, 0.0
12.26000, 0.0
12.28000, 0.0
12.30000, 1.0
12.32000, 0.0
12.34000, 1.0
12.36000, 1.0
12.38000, 1.0
12.40000, 2.0
12.42000, 1.0
12.44000, 1.0
12.46000, 1.0
12.48000, 0.0
12.50000, 1.0
12.52000, 0.0
12.54000, 0.0
12.56000, 1.0
12.58000, 1.0
12.60000, 0.0
12.62000, 0.0
12.64000, 0.0
12.66000, 1.0
12.68000, 1.0
12.70000, 0.0
12.72000, 0.0
12.74000, 0.0
12.76000, 1.0
12.78000, 0.0
12.80000, 0.0
12.82000, 1.0
12.84000, 0.0
12.86000, 0.0
12.88000, 0.0
12.90000, 1.0
12.92000, 0.0
12.94000, 0.0
12.96000, 0.0
12.98000, 1.0
13.00000, 1.0
13.02000, 0.0
13.04000, 0.0
13.06000, 0.0
13.08000, 0.0
13.10000, 1.0
13.12000, 1.0
13.14000, 0.0
13.16000, 0.0
13.18000, 1.0
13.20000, 0.0
13.22000, 0.0
13.24000, 0.0
13.26000, 0.0
13.28000, 0.0
13.30000, 0.0
13.32000, 0.0
13.34000, 0.0
13.36000, 0.0
13.38000, 0.0
13.40000, 0.0
13.42000, 0.0
13.44000, 0.0
13.46000, 0.0
13.48000, 0.0
13.50000, 1.0
13.52000, 0.0
13.54000, 0.0
13.56000, 0.0
13.58000, 0.0
13.60000, 0.0
13.62000, 0.0
13.64000, 0.0
13.66000, 0.0
13.68000, 1.0
13.70000, 0.0
13.72000, 0.0
13.74000, 0.0
13.76000, 0.0
13.78000, 0.0
13.80000, 0.0
13.82000, 0.0
13.84000, 0.0
13.86000, 0.0
13.88000, 0.0
13.90000, 0.0
13.92000, 0.0
13.94000, 0.0
13.96000, 0.0
13.98000, 0.0
14.00000, 0.0
14.02000, 0.0
14.04000, 0.0
14.06000, 0.0
14.08000, 0.0
14.10000, 0.0
14.12000, 0.0
14.14000, 0.0
14.16000, 1.0
14.18000, 0.0
14.20000, 0.0
14.22000, 0.0
14.24000, 0.0
14.26000, 0.0
14.28000, 0.0
14.30000, 0.0
14.32000, 0.0
14.34000, 0.0
14.36000, 0.0
14.38000, 0.0
14.40000, 0.0
14.42000, 0.0
14.44000, 0.0
14.46000, 0.0
14.48000, 0.0
14.50000, 0.0
14.52000, 1.0
14.54000, 0.0
14.56000, 1.0
14.58000, 0.0
14.60000, 0.0
14.62000, 0.0
14.64000, 0.0
14.66000, 0.0
14.68000, 0.0
14.70000, 0.0
14.72000, 0.0
14.74000, 0.0
14.76000, 1.0
14.78000, 0.0
14.80000, 0.0
14.82000, 0.0
14.84000, 0.0
14.86000, 0.0
14.88000, 0.0
14.90000, 0.0
14.92000, 0.0
14.94000, 0.0
14.96000, 0.0
14.98000, 0.0
15.00000, 0.0
15.02000, 0.0
15.04000, 0.0
15.06000, 0.0
15.08000, 0.0
15.10000, 0.0
15.12000, 0.0
15.14000, 0.0
15.16000, 0.0
15.18000, 1.0
15.20000, 0.0
15.22000, 1.0
15.24000, 0.0
15.26000, 0.0
15.28000, 0.0
15.30000, 0.0
15.32000, 0.0
15.34000, 0.0
15.36000, 0.0
15.38000, 0.0
15.40000, 0.0
15.42000, 0.0
15.44000, 0.0
15.46000, 0.0
15.48000, 0.0
15.50000, 0.0
15.52000, 0.0
15.54000, 0.0
15.56000, 0.0
15.58000, 0.0
15.60000, 0.0
15.62000, 0.0
15.64000, 0.0
15.66000, 0.0
15.68000, 0.0
15.70000, 0.0
15.72000, 0.0
15.74000, 0.0
15.76000, 0.0
15.78000, 0.0
15.80000, 0.0
15.82000, 0.0
15.84000, 0.0
15.86000, 0.0
15.88000, 0.0
15.90000, 0.0
15.92000, 0.0
15.94000, 0.0
15.96000, 0.0
15.98000, 0.0
16.00000, 0.0
16.02000, 0.0
16.04000, 0.0
16.06000, 0.0
16.08000, 0.0
16.10000, 0.0
16.12000, 0.0
16.14000, 0.0
16.16000, 0.0
16.18000, 0.0
16.20000, 0.0
16.22000, 0.0
16.24000, 0.0
16.26000, 0.0
16.28000, 0.0
16.30000, 0.0
16.32000, 0.0
16.34000, 0.0
16.36000, 1.0
16.38000, 0.0
16.40000, 0.0
16.42000, 0.0
16.44000, 0.0
16.46000, 0.0
16.48000, 0.0
16.50000, 0.0
16.52000, 0.0
16.54000, 0.0
16.56000, 0.0
16.58000, 0.0
16.60000, 0.0
16.62000, 0.0
16.64000, 0.0
16.66000, 0.0
16.68000, 0.0
16.70000, 0.0
16.72000, 0.0
16.74000, 0.0
16.76000, 0.0
16.78000, 0.0
16.80000, 0.0
16.82000, 0.0
16.84000, 0.0
16.86000, 0.0
16.88000, 0.0
16.90000, 0.0
16.92000, 0.0
16.94000, 0.0
16.96000, 0.0
16.98000, 0.0
17.00000, 0.0
17.02000, 0.0
17.04000, 0.0
17.06000, 0.0
17.08000, 0.0
17.10000, 0.0
17.12000, 1.0
17.14000, 0.0
17.16000, 0.0
17.18000, 0.0
17.20000, 0.0
17.22000, 0.0
17.24000, 0.0
17.26000, 0.0
17.28000, 0.0
17.30000, 0.0
17.32000, 0.0
17.34000, 0.0
17.36000, 0.0
17.38000, 0.0
17.40000, 0.0
17.42000, 0.0
17.44000, 0.0
17.46000, 0.0
17.48000, 0.0
17.50000, 0.0
17.52000, 0.0
17.54000, 0.0
17.56000, 0.0
17.58000, 0.0
17.60000, 0.0
17.62000, 0.0
17.64000, 0.0
17.66000, 0.0
17.68000, 0.0
17.70000, 0.0
17.72000, 0.0
17.74000, 0.0
17.76000, 0.0
17.78000, 0.0
17.80000, 0.0
17.82000, 0.0
17.84000, 0.0
17.86000, 0.0
17.88000, 0.0
17.90000, 0.0
17.92000, 0.0
17.94000, 0.0
17.96000, 0.0
17.98000, 0.0
18.00000, 0.0
18.02000, 0.0
18.04000, 0.0
18.06000, 0.0
18.08000, 0.0
18.10000, 0.0
18.12000, 0.0
18.14000, 0.0
18.16000, 0.0
18.18000, 0.0
18.20000, 0.0
18.22000, 0.0
18.24000, 0.0
18.26000, 0.0
18.28000, 0.0
18.30000, 0.0
18.32000, 0.0
18.34000, 0.0
18.36000, 0.0
18.38000, 0.0
18.40000, 0.0
18.42000, 0.0
18.44000, 0.0
18.46000, 0.0
18.48000, 0.0
18.50000, 0.0
18.52000, 0.0
18.54000, 0.0
18.56000, 0.0
18.58000, 0.0
18.60000, 0.0
18.62000, 0.0
18.64000, 0.0
18.66000, 0.0
18.68000, 0.0
18.70000, 0.0
18.72000, 0.0
18.74000, 0.0
18.76000, 0.0
18.78000, 0.0
18.80000, 0.0
18.82000, 0.0
18.84000, 0.0
18.86000, 0.0
18.88000, 0.0
18.90000, 0.0
18.92000, 0.0
18.94000, 0.0
18.96000, 0.0
18.98000, 0.0
19.00000, 0.0
19.02000, 0.0
19.04000, 0.0
19.06000, 0.0
19.08000, 0.0
19.10000, 0.0
19.12000, 0.0
19.14000, 0.0
19.16000, 0.0
19.18000, 0.0
19.20000, 0.0
19.22000, 0.0
19.24000, 0.0
19.26000, 0.0
19.28000, 0.0
19.30000, 0.0
19.32000, 0.0
19.34000, 0.0
19.36000, 0.0
19.38000, 0.0
19.40000, 0.0
19.42000, 0.0
19.44000, 0.0
19.46000, 0.0
19.48000, 0.0
19.50000, 0.0
19.52000, 0.0
19.54000, 0.0
19.56000, 0.0
19.58000, 0.0
19.60000, 0.0
19.62000, 0.0
19.64000, 0.0
19.66000, 0.0
19.68000, 0.0
19.70000, 0.0
19.72000, 0.0
19.74000, 0.0
19.76000, 0.0
19.78000, 0.0
19.80000, 0.0
19.82000, 0.0
19.84000, 0.0
19.86000, 0.0
19.88000, 0.0
19.90000, 0.0
19.92000, 0.0
19.94000, 0.0
19.96000, 0.0
19.98000, 0.0
20.00000, 0.0
20.02000, 0.0
20.04000, 0.0
20.06000, 0.0
20.08000, 0.0
20.10000, 0.0
20.12000, 0.0
20.14000, 0.0
20.16000, 0.0
20.18000, 0.0
20.20000, 0.0
20.22000, 0.0
20.24000, 0.0
20.26000, 0.0
20.27000, 0.0
#ENDOFDATA   :