File: data/2022-09-06_EDS-SEM-APREO/Si_30kV.emsa
#FORMAT      : EMSA/MAS Spectral Data File
#VERSION     : 1.0
#TITLE       : Si_30kV
#DATE        : 06-SEP-2022
#TIME        : 17:20
#OWNER       :
#NPOINTS     : 2048.0
#NCOLUMNS    : 1.0
#XUNITS      : keV
#YUNITS      : counts
#DATATYPE    : XY
#XPERCHAN    : 0.01
#OFFSET      : -0.2
#SIGNALTYPE  : EDS
#CHOFFSET    : 20.0
#LIVETIME    : 86.8343
#REALTIME    : 147.33
#BEAMKV      : 30.0
#MAGCAM      : 1958.0
#XTILTSTGE   : 0.0
#AZIMANGLE   : 0.0
#ELEVANGLE   : 35.0
#XPOSITION mm: 10.6075
#YPOSITION mm: -10.1979
#ZPOSITION mm: 9.9088
##OXINSTPT   : 5
##OXINSTSTROB: 36.32
##OXINSTNDET : 1
##OXINSTELEMS: 14
##OXINSTLABEL: 14, 1.740, Si
#SPECTRUM    : Spectral Data Starts Here
-0.20000, 0.0
-0.18000, 0.0
-0.16000, 0.0
-0.14000, 0.0
-0.12000, 0.0
-0.10000, 0.0
-0.08000, 0.0
-0.06000, 0.0
-0.04000, 56.0
-0.02000, 803.0
0.00000, 3502.0
0.02000, 5635.0
0.04000, 2825.0
0.06000, 626.0
0.08000, 888.0
0.10000, 1037.0
0.12000, 443.0
0.14000, 183.0
0.16000, 142.0
0.18000, 113.0
0.20000, 123.0
0.22000, 158.0
0.24000, 326.0
0.26000, 588.0
0.28000, 554.0
0.30000, 291.0
0.32000, 140.0
0.34000, 111.0
0.36000, 136.0
0.38000, 149.0
0.40000, 138.0
0.42000, 155.0
0.44000, 149.0
0.46000, 178.0
0.48000, 212.0
0.50000, 255.0
0.52000, 294.0
0.54000, 266.0
0.56000, 238.0
0.58000, 227.0
0.60000, 265.0
0.62000, 249.0
0.64000, 298.0
0.66000, 320.0
0.68000, 344.0
0.70000, 370.0
0.72000, 404.0
0.74000, 413.0
0.76000, 444.0
0.78000, 521.0
0.80000, 510.0
0.82000, 547.0
0.84000, 596.0
0.86000, 648.0
0.88000, 688.0
0.90000, 692.0
0.92000, 743.0
0.94000, 779.0
0.96000, 787.0
0.98000, 841.0
1.00000, 906.0
1.02000, 910.0
1.04000, 943.0
1.06000, 973.0
1.08000, 1006.0
1.10000, 1012.0
1.12000, 1024.0
1.14000, 1016.0
1.16000, 1106.0
1.18000, 1068.0
1.20000, 1112.0
1.22000, 1190.0
1.24000, 1179.0
1.26000, 1209.0
1.28000, 1216.0
1.30000, 1279.0
1.32000, 1326.0
1.34000, 1324.0
1.36000, 1432.0
1.38000, 1438.0
1.40000, 1497.0
1.42000, 1640.0
1.44000, 1713.0
1.46000, 1724.0
1.48000, 1860.0
1.50000, 1968.0
1.52000, 2160.0
1.54000, 2246.0
1.56000, 2306.0
1.58000, 2394.0
1.60000, 2396.0
1.62000, 2693.0
1.64000, 4435.0
1.66000, 13533.0
1.68000, 45801.0
1.70000, 122666.0
1.72000, 228080.0
1.74000, 288403.0
1.76000, 248175.0
1.78000, 146955.0
1.80000, 64397.0
1.82000, 26532.0
1.84000, 14809.0
1.86000, 9282.0
1.88000, 4863.0
1.90000, 1968.0
1.92000, 620.0
1.94000, 312.0
1.96000, 225.0
1.98000, 205.0
2.00000, 221.0
2.02000, 192.0
2.04000, 215.0
2.06000, 221.0
2.08000, 197.0
2.10000, 213.0
2.12000, 208.0
2.14000, 196.0
2.16000, 221.0
2.18000, 226.0
2.20000, 232.0
2.22000, 220.0
2.24000, 225.0
2.26000, 256.0
2.28000, 253.0
2.30000, 258.0
2.32000, 254.0
2.34000, 288.0
2.36000, 279.0
2.38000, 275.0
2.40000, 296.0
2.42000, 295.0
2.44000, 275.0
2.46000, 295.0
2.48000, 296.0
2.50000, 301.0
2.52000, 317.0
2.54000, 323.0
2.56000, 310.0
2.58000, 309.0
2.60000, 355.0
2.62000, 336.0
2.64000, 336.0
2.66000, 341.0
2.68000, 346.0
2.70000, 336.0
2.72000, 346.0
2.74000, 363.0
2.76000, 331.0
2.78000, 329.0
2.80000, 351.0
2.82000, 377.0
2.84000, 350.0
2.86000, 356.0
2.88000, 351.0
2.90000, 377.0
2.92000, 375.0
2.94000, 374.0
2.96000, 363.0
2.98000, 380.0
3.00000, 357.0
3.02000, 369.0
3.04000, 386.0
3.06000, 382.0
3.08000, 398.0
3.10000, 407.0
3.12000, 399.0
3.14000, 405.0
3.16000, 414.0
3.18000, 412.0
3.20000, 396.0
3.22000, 386.0
3.24000, 375.0
3.26000, 404.0
3.28000, 418.0
3.30000, 426.0
3.32000, 448.0
3.34000, 434.0
3.36000, 480.0
3.38000, 526.0
3.40000, 781.0
3.42000, 1197.0
3.44000, 1829.0
3.46000, 2530.0
3.48000, 2857.0
3.50000, 2776.0
3.52000, 2199.0
3.54000, 1567.0
3.56000, 1090.0
3.58000, 823.0
3.60000, 644.0
3.62000, 536.0
3.64000, 474.0
3.66000, 431.0
3.68000, 408.0
3.70000, 386.0
3.72000, 385.0
3.74000, 386.0
3.76000, 372.0
3.78000, 372.0
3.80000, 394.0
3.82000, 381.0
3.84000, 384.0
3.86000, 416.0
3.88000, 359.0
3.90000, 390.0
3.92000, 379.0
3.94000, 368.0
3.96000, 407.0
3.98000, 391.0
4.00000, 368.0
4.02000, 372.0
4.04000, 408.0
4.06000, 398.0
4.08000, 382.0
4.10000, 391.0
4.12000, 360.0
4.14000, 377.0
4.16000, 392.0
4.18000, 379.0
4.20000, 385.0
4.22000, 379.0
4.24000, 378.0
4.26000, 375.0
4.28000, 398.0
4.30000, 369.0
4.32000, 373.0
4.34000, 346.0
4.36000, 396.0
4.38000, 375.0
4.40000, 358.0
4.42000, 345.0
4.44000, 356.0
4.46000, 345.0
4.48000, 363.0
4.50000, 368.0
4.52000, 365.0
4.54000, 358.0
4.56000, 361.0
4.58000, 376.0
4.60000, 388.0
4.62000, 355.0
4.64000, 371.0
4.66000, 345.0
4.68000, 365.0
4.70000, 368.0
4.72000, 364.0
4.74000, 372.0
4.76000, 356.0
4.78000, 356.0
4.80000, 357.0
4.82000, 367.0
4.84000, 356.0
4.86000, 370.0
4.88000, 353.0
4.90000, 341.0
4.92000, 322.0
4.94000, 370.0
4.96000, 325.0
4.98000, 327.0
5.00000, 324.0
5.02000, 334.0
5.04000, 329.0
5.06000, 361.0
5.08000, 308.0
5.10000, 345.0
5.12000, 327.0
5.14000, 353.0
5.16000, 337.0
5.18000, 344.0
5.20000, 341.0
5.22000, 363.0
5.24000, 351.0
5.26000, 331.0
5.28000, 347.0
5.30000, 357.0
5.32000, 334.0
5.34000, 325.0
5.36000, 324.0
5.38000, 354.0
5.40000, 322.0
5.42000, 323.0
5.44000, 318.0
5.46000, 312.0
5.48000, 317.0
5.50000, 330.0
5.52000, 321.0
5.54000, 319.0
5.56000, 305.0
5.58000, 336.0
5.60000, 285.0
5.62000, 313.0
5.64000, 320.0
5.66000, 312.0
5.68000, 309.0
5.70000, 319.0
5.72000, 323.0
5.74000, 331.0
5.76000, 314.0
5.78000, 279.0
5.80000, 328.0
5.82000, 315.0
5.84000, 316.0
5.86000, 299.0
5.88000, 310.0
5.90000, 296.0
5.92000, 289.0
5.94000, 311.0
5.96000, 295.0
5.98000, 300.0
6.00000, 320.0
6.02000, 289.0
6.04000, 301.0
6.06000, 289.0
6.08000, 283.0
6.10000, 286.0
6.12000, 294.0
6.14000, 280.0
6.16000, 285.0
6.18000, 272.0
6.20000, 273.0
6.22000, 282.0
6.24000, 281.0
6.26000, 277.0
6.28000, 292.0
6.30000, 297.0
6.32000, 277.0
6.34000, 288.0
6.36000, 279.0
6.38000, 281.0
6.40000, 268.0
6.42000, 296.0
6.44000, 284.0
6.46000, 291.0
6.48000, 269.0
6.50000, 280.0
6.52000, 257.0
6.54000, 283.0
6.56000, 250.0
6.58000, 265.0
6.60000, 256.0
6.62000, 253.0
6.64000, 289.0
6.66000, 258.0
6.68000, 274.0
6.70000, 266.0
6.72000, 261.0
6.74000, 265.0
6.76000, 271.0
6.78000, 230.0
6.80000, 260.0
6.82000, 255.0
6.84000, 250.0
6.86000, 242.0
6.88000, 263.0
6.90000, 260.0
6.92000, 246.0
6.94000, 247.0
6.96000, 236.0
6.98000, 249.0
7.00000, 260.0
7.02000, 250.0
7.04000, 243.0
7.06000, 247.0
7.08000, 252.0
7.10000, 228.0
7.12000, 244.0
7.14000, 245.0
7.16000, 259.0
7.18000, 258.0
7.20000, 236.0
7.22000, 227.0
7.24000, 241.0
7.26000, 242.0
7.28000, 248.0
7.30000, 212.0
7.32000, 220.0
7.34000, 226.0
7.36000, 232.0
7.38000, 235.0
7.40000, 219.0
7.42000, 235.0
7.44000, 210.0
7.46000, 224.0
7.48000, 232.0
7.50000, 248.0
7.52000, 234.0
7.54000, 232.0
7.56000, 230.0
7.58000, 226.0
7.60000, 239.0
7.62000, 221.0
7.64000, 226.0
7.66000, 232.0
7.68000, 213.0
7.70000, 211.0
7.72000, 210.0
7.74000, 237.0
7.76000, 220.0
7.78000, 213.0
7.80000, 223.0
7.82000, 191.0
7.84000, 194.0
7.86000, 203.0
7.88000, 208.0
7.90000, 197.0
7.92000, 210.0
7.94000, 209.0
7.96000, 195.0
7.98000, 205.0
8.00000, 215.0
8.02000, 196.0
8.04000, 211.0
8.06000, 205.0
8.08000, 220.0
8.10000, 215.0
8.12000, 215.0
8.14000, 203.0
8.16000, 184.0
8.18000, 200.0
8.20000, 197.0
8.22000, 190.0
8.24000, 204.0
8.26000, 211.0
8.28000, 192.0
8.30000, 191.0
8.32000, 200.0
8.34000, 214.0
8.36000, 194.0
8.38000, 195.0
8.40000, 186.0
8.42000, 200.0
8.44000, 179.0
8.46000, 189.0
8.48000, 168.0
8.50000, 179.0
8.52000, 184.0
8.54000, 183.0
8.56000, 181.0
8.58000, 179.0
8.60000, 185.0
8.62000, 193.0
8.64000, 191.0
8.66000, 196.0
8.68000, 179.0
8.70000, 188.0
8.72000, 167.0
8.74000, 175.0
8.76000, 177.0
8.78000, 200.0
8.80000, 181.0
8.82000, 166.0
8.84000, 180.0
8.86000, 183.0
8.88000, 166.0
8.90000, 184.0
8.92000, 180.0
8.94000, 167.0
8.96000, 173.0
8.98000, 174.0
9.00000, 188.0
9.02000, 177.0
9.04000, 176.0
9.06000, 169.0
9.08000, 169.0
9.10000, 175.0
9.12000, 153.0
9.14000, 189.0
9.16000, 167.0
9.18000, 164.0
9.20000, 169.0
9.22000, 186.0
9.24000, 155.0
9.26000, 165.0
9.28000, 167.0
9.30000, 168.0
9.32000, 163.0
9.34000, 181.0
9.36000, 167.0
9.38000, 169.0
9.40000, 167.0
9.42000, 171.0
9.44000, 159.0
9.46000, 161.0
9.48000, 163.0
9.50000, 147.0
9.52000, 162.0
9.54000, 169.0
9.56000, 170.0
9.58000, 156.0
9.60000, 156.0
9.62000, 146.0
9.64000, 138.0
9.66000, 174.0
9.68000, 162.0
9.70000, 153.0
9.72000, 169.0
9.74000, 153.0
9.76000, 163.0
9.78000, 135.0
9.80000, 157.0
9.82000, 163.0
9.84000, 140.0
9.86000, 155.0
9.88000, 144.0
9.90000, 154.0
9.92000, 127.0
9.94000, 146.0
9.96000, 160.0
9.98000, 151.0
10.00000, 137.0
10.02000, 143.0
10.04000, 139.0
10.06000, 164.0
10.08000, 138.0
10.10000, 155.0
10.12000, 156.0
10.14000, 141.0
10.16000, 153.0
10.18000, 144.0
10.20000, 134.0
10.22000, 152.0
10.24000, 143.0
10.26000, 129.0
10.28000, 135.0
10.30000, 132.0
10.32000, 145.0
10.34000, 134.0
10.36000, 131.0
10.38000, 142.0
10.40000, 134.0
10.42000, 131.0
10.44000, 151.0
10.46000, 136.0
10.48000, 136.0
10.50000, 140.0
10.52000, 129.0
10.54000, 121.0
10.56000, 117.0
10.58000, 143.0
10.60000, 133.0
10.62000, 139.0
10.64000, 125.0
10.66000, 109.0
10.68000, 132.0
10.70000, 125.0
10.72000, 126.0
10.74000, 128.0
10.76000, 129.0
10.78000, 142.0
10.80000, 114.0
10.82000, 128.0
10.84000, 133.0
10.86000, 119.0
10.88000, 137.0
10.90000, 125.0
10.92000, 135.0
10.94000, 135.0
10.96000, 134.0
10.98000, 130.0
11.00000, 122.0
11.02000, 123.0
11.04000, 132.0
11.06000, 122.0
11.08000, 125.0
11.10000, 123.0
11.12000, 130.0
11.14000, 107.0
11.16000, 96.0
11.18000, 99.0
11.20000, 116.0
11.22000, 96.0
11.24000, 118.0
11.26000, 130.0
11.28000, 106.0
11.30000, 114.0
11.32000, 124.0
11.34000, 106.0
11.36000, 117.0
11.38000, 131.0
11.40000, 103.0
11.42000, 110.0
11.44000, 114.0
11.46000, 106.0
11.48000, 105.0
11.50000, 112.0
11.52000, 100.0
11.54000, 109.0
11.56000, 114.0
11.58000, 124.0
11.60000, 116.0
11.62000, 103.0
11.64000, 114.0
11.66000, 108.0
11.68000, 100.0
11.70000, 99.0
11.72000, 105.0
11.74000, 107.0
11.76000, 98.0
11.78000, 94.0
11.80000, 87.0
11.82000, 97.0
11.84000, 106.0
11.86000, 99.0
11.88000, 106.0
11.90000, 109.0
11.92000, 111.0
11.94000, 103.0
11.96000, 93.0
11.98000, 91.0
12.00000, 110.0
12.02000, 96.0
12.04000, 95.0
12.06000, 113.0
12.08000, 94.0
12.10000, 88.0
12.12000, 92.0
12.14000, 94.0
12.16000, 93.0
12.18000, 106.0
12.20000, 87.0
12.22000, 89.0
12.24000, 81.0
12.26000, 89.0
12.28000, 94.0
12.30000, 84.0
12.32000, 96.0
12.34000, 84.0
12.36000, 91.0
12.38000, 97.0
12.40000, 89.0
12.42000, 93.0
12.44000, 81.0
12.46000, 93.0
12.48000, 88.0
12.50000, 87.0
12.52000, 91.0
12.54000, 89.0
12.56000, 84.0
12.58000, 87.0
12.60000, 90.0
12.62000, 84.0
12.64000, 79.0
12.66000, 92.0
12.68000, 83.0
12.70000, 88.0
12.72000, 83.0
12.74000, 76.0
12.76000, 84.0
12.78000, 89.0
12.80000, 74.0
12.82000, 86.0
12.84000, 69.0
12.86000, 76.0
12.88000, 78.0
12.90000, 83.0
12.92000, 88.0
12.94000, 94.0
12.96000, 68.0
12.98000, 80.0
13.00000, 79.0
13.02000, 87.0
13.04000, 77.0
13.06000, 69.0
13.08000, 81.0
13.10000, 85.0
13.12000, 78.0
13.14000, 76.0
13.16000, 78.0
13.18000, 72.0
13.20000, 77.0
13.22000, 71.0
13.24000, 74.0
13.26000, 74.0
13.28000, 71.0
13.30000, 80.0
13.32000, 78.0
13.34000, 70.0
13.36000, 66.0
13.38000, 77.0
13.40000, 72.0
13.42000, 73.0
13.44000, 74.0
13.46000, 69.0
13.48000, 73.0
13.50000, 77.0
13.52000, 77.0
13.54000, 81.0
13.56000, 68.0
13.58000, 79.0
13.60000, 74.0
13.62000, 71.0
13.64000, 75.0
13.66000, 66.0
13.68000, 70.0
13.70000, 65.0
13.72000, 74.0
13.74000, 62.0
13.76000, 64.0
13.78000, 68.0
13.80000, 61.0
13.82000, 72.0
13.84000, 81.0
13.86000, 62.0
13.88000, 70.0
13.90000, 61.0
13.92000, 56.0
13.94000, 55.0
13.96000, 58.0
13.98000, 60.0
14.00000, 65.0
14.02000, 60.0
14.04000, 60.0
14.06000, 65.0
14.08000, 62.0
14.10000, 63.0
14.12000, 57.0
14.14000, 62.0
14.16000, 54.0
14.18000, 50.0
14.20000, 49.0
14.22000, 61.0
14.24000, 55.0
14.26000, 64.0
14.28000, 55.0
14.30000, 60.0
14.32000, 61.0
14.34000, 68.0
14.36000, 65.0
14.38000, 54.0
14.40000, 67.0
14.42000, 48.0
14.44000, 55.0
14.46000, 58.0
14.48000, 58.0
14.50000, 59.0
14.52000, 55.0
14.54000, 56.0
14.56000, 56.0
14.58000, 53.0
14.60000, 55.0
14.62000, 46.0
14.64000, 47.0
14.66000, 54.0
14.68000, 49.0
14.70000, 47.0
14.72000, 59.0
14.74000, 55.0
14.76000, 59.0
14.78000, 51.0
14.80000, 51.0
14.82000, 47.0
14.84000, 48.0
14.86000, 54.0
14.88000, 52.0
14.90000, 48.0
14.92000, 53.0
14.94000, 44.0
14.96000, 59.0
14.98000, 52.0
15.00000, 53.0
15.02000, 54.0
15.04000, 55.0
15.06000, 46.0
15.08000, 57.0
15.10000, 62.0
15.12000, 44.0
15.14000, 47.0
15.16000, 57.0
15.18000, 49.0
15.20000, 44.0
15.22000, 49.0
15.24000, 43.0
15.26000, 48.0
15.28000, 48.0
15.30000, 44.0
15.32000, 54.0
15.34000, 37.0
15.36000, 38.0
15.38000, 51.0
15.40000, 47.0
15.42000, 47.0
15.44000, 42.0
15.46000, 55.0
15.48000, 50.0
15.50000, 40.0
15.52000, 47.0
15.54000, 46.0
15.56000, 37.0
15.58000, 45.0
15.60000, 39.0
15.62000, 38.0
15.64000, 46.0
15.66000, 45.0
15.68000, 38.0
15.70000, 36.0
15.72000, 36.0
15.74000, 38.0
15.76000, 37.0
15.78000, 38.0
15.80000, 41.0
15.82000, 43.0
15.84000, 53.0
15.86000, 38.0
15.88000, 37.0
15.90000, 46.0
15.92000, 40.0
15.94000, 46.0
15.96000, 35.0
15.98000, 37.0
16.00000, 41.0
16.02000, 45.0
16.04000, 32.0
16.06000, 41.0
16.08000, 41.0
16.10000, 36.0
16.12000, 39.0
16.14000, 29.0
16.16000, 43.0
16.18000, 40.0
16.20000, 35.0
16.22000, 36.0
16.24000, 33.0
16.26000, 36.0
16.28000, 43.0
16.30000, 38.0
16.32000, 33.0
16.34000, 30.0
16.36000, 28.0
16.38000, 39.0
16.40000, 28.0
16.42000, 32.0
16.44000, 28.0
16.46000, 28.0
16.48000, 35.0
16.50000, 36.0
16.52000, 34.0
16.54000, 38.0
16.56000, 37.0
16.58000, 31.0
16.60000, 30.0
16.62000, 37.0
16.64000, 28.0
16.66000, 32.0
16.68000, 33.0
16.70000, 34.0
16.72000, 34.0
16.74000, 34.0
16.76000, 28.0
16.78000, 32.0
16.80000, 27.0
16.82000, 29.0
16.84000, 30.0
16.86000, 24.0
16.88000, 29.0
16.90000, 30.0
16.92000, 26.0
16.94000, 29.0
16.96000, 28.0
16.98000, 30.0
17.00000, 35.0
17.02000, 29.0
17.04000, 25.0
17.06000, 31.0
17.08000, 31.0
17.10000, 22.0
17.12000, 27.0
17.14000, 35.0
17.16000, 33.0
17.18000, 29.0
17.20000, 26.0
17.22000, 21.0
17.24000, 25.0
17.26000, 25.0
17.28000, 30.0
17.30000, 28.0
17.32000, 29.0
17.34000, 31.0
17.36000, 23.0
17.38000, 20.0
17.40000, 24.0
17.42000, 25.0
17.44000, 24.0
17.46000, 24.0
17.48000, 26.0
17.50000, 25.0
17.52000, 26.0
17.54000, 22.0
17.56000, 29.0
17.58000, 24.0
17.60000, 21.0
17.62000, 25.0
17.64000, 24.0
17.66000, 30.0
17.68000, 24.0
17.70000, 20.0
17.72000, 21.0
17.74000, 16.0
17.76000, 26.0
17.78000, 25.0
17.80000, 20.0
17.82000, 22.0
17.84000, 25.0
17.86000, 22.0
17.88000, 23.0
17.90000, 18.0
17.92000, 25.0
17.94000, 21.0
17.96000, 19.0
17.98000, 18.0
18.00000, 25.0
18.02000, 24.0
18.04000, 28.0
18.06000, 23.0
18.08000, 20.0
18.10000, 19.0
18.12000, 21.0
18.14000, 15.0
18.16000, 17.0
18.18000, 26.0
18.20000, 27.0
18.22000, 22.0
18.24000, 18.0
18.26000, 23.0
18.28000, 19.0
18.30000, 19.0
18.32000, 25.0
18.34000, 20.0
18.36000, 21.0
18.38000, 15.0
18.40000, 19.0
18.42000, 18.0
18.44000, 14.0
18.46000, 21.0
18.48000, 22.0
18.50000, 21.0
18.52000, 19.0
18.54000, 21.0
18.56000, 18.0
18.58000, 17.0
18.60000, 14.0
18.62000, 19.0
18.64000, 23.0
18.66000, 20.0
18.68000, 22.0
18.70000, 16.0
18.72000, 19.0
18.74000, 17.0
18.76000, 19.0
18.78000, 18.0
18.80000, 16.0
18.82000, 16.0
18.84000, 17.0
18.86000, 17.0
18.88000, 15.0
18.90000, 19.0
18.92000, 16.0
18.94000, 14.0
18.96000, 17.0
18.98000, 17.0
19.00000, 19.0
19.02000, 16.0
19.04000, 17.0
19.06000, 20.0
19.08000, 18.0
19.10000, 18.0
19.12000, 22.0
19.14000, 16.0
19.16000, 13.0
19.18000, 16.0
19.20000, 17.0
19.22000, 21.0
19.24000, 14.0
19.26000, 17.0
19.28000, 18.0
19.30000, 13.0
19.32000, 15.0
19.34000, 16.0
19.36000, 12.0
19.38000, 11.0
19.40000, 14.0
19.42000, 19.0
19.44000, 13.0
19.46000, 16.0
19.48000, 14.0
19.50000, 21.0
19.52000, 13.0
19.54000, 11.0
19.56000, 16.0
19.58000, 14.0
19.60000, 15.0
19.62000, 17.0
19.64000, 11.0
19.66000, 20.0
19.68000, 17.0
19.70000, 15.0
19.72000, 13.0
19.74000, 14.0
19.76000, 17.0
19.78000, 12.0
19.80000, 16.0
19.82000, 16.0
19.84000, 12.0
19.86000, 14.0
19.88000, 17.0
19.90000, 7.0
19.92000, 13.0
19.94000, 12.0
19.96000, 13.0
19.98000, 8.0
20.00000, 16.0
20.02000, 9.0
20.04000, 14.0
20.06000, 17.0
20.08000, 14.0
20.10000, 19.0
20.12000, 10.0
20.14000, 13.0
20.16000, 7.0
20.18000, 10.0
20.20000, 9.0
20.22000, 10.0
20.24000, 10.0
20.26000, 11.0
20.27000, 10.0
#ENDOFDATA   :